"Time (s)","Linear Acceleration x (m/s^2)","Linear Acceleration y (m/s^2)","Linear Acceleration z (m/s^2)"
4.018916000E-2,9.745731950E-4,-2.267706394E-2,1.363544464E-1
5.335205400E-2,1.052647829E-3,-9.922862053E-3,6.134796143E-2
6.469337100E-2,-1.265585423E-3,8.014440536E-3,-5.119132996E-2
7.529293500E-2,-2.161324024E-3,1.451921463E-2,-9.640502930E-2
8.571053000E-2,-2.099171281E-3,1.981472969E-2,-1.385622025E-1
9.574034300E-2,-1.465536654E-3,2.138531208E-2,-1.559629440E-1
1.065226450E-1,-1.890420914E-3,2.429711819E-2,-1.844711304E-1
1.260201670E-1,-3.313079476E-3,2.589201927E-2,-2.087955475E-1
1.458467610E-1,-1.634165645E-3,2.470910549E-2,-1.869268417E-1
1.665542160E-1,1.595616341E-4,1.227748394E-2,-8.699798584E-2
1.860247260E-1,1.778423786E-3,-2.539527416E-2,1.873826981E-1
1.962329100E-1,-1.123100519E-4,7.834434509E-4,-6.068229675E-3
2.063482520E-1,-4.373103380E-3,3.032684326E-2,-2.398843765E-1
2.169191520E-1,-3.574669361E-3,5.201995373E-2,-4.042577744E-1
2.360680820E-1,-1.075554639E-3,3.215301037E-2,-2.403306961E-1
2.462394320E-1,4.805400968E-4,-6.257891655E-3,4.310894012E-2
2.658922670E-1,1.006782055E-3,-8.439421654E-3,5.409622192E-2
2.759345970E-1,2.697944641E-3,-2.306282520E-2,1.497144699E-1
2.959452640E-1,-2.226173878E-3,2.852559090E-2,-1.966457367E-1
3.158645060E-1,-1.803889871E-3,2.395772934E-2,-1.734848022E-1
3.259222530E-1,-1.265496016E-3,1.627361774E-2,-1.159515381E-1
3.458264490E-1,-1.625940204E-3,1.645648479E-2,-1.029586792E-1
3.558520530E-1,1.844525337E-3,-1.960933208E-2,1.226243973E-1
3.662531620E-1,5.216196179E-3,-5.976521969E-2,3.956651688E-1
3.859757900E-1,-2.290755510E-4,1.296854019E-2,-1.011085510E-1
4.058107050E-1,2.851422876E-3,5.470085144E-2,-5.238380432E-1
4.158389980E-1,1.995027065E-3,3.709423542E-2,-3.997621536E-1
4.358318850E-1,-5.858689547E-4,1.806384325E-2,-1.862373352E-1
4.465916460E-1,-2.660050988E-3,4.655420780E-2,-3.979692459E-1
4.664093310E-1,-1.962944865E-3,3.799962997E-2,-3.031520844E-1
4.862244420E-1,-2.207890153E-3,1.876723766E-2,-1.426544189E-1
5.058927380E-1,-3.468811512E-3,3.981316090E-2,-2.747020721E-1
5.161315510E-1,-1.992508769E-3,3.000426292E-2,-2.027645111E-1
5.358872100E-1,4.147209227E-3,-4.529249668E-2,3.255882263E-1
5.459073290E-1,4.250913858E-3,-3.755462170E-2,2.806539536E-1
5.660593190E-1,-4.337571561E-3,5.166649818E-2,-3.762969971E-1
5.858227330E-1,-1.747040078E-4,3.258419037E-2,-2.190742493E-1
5.958457150E-1,3.386382014E-5,-6.511569023E-3,4.266262054E-2
6.058514510E-1,1.019988209E-3,-3.597640991E-2,2.230939865E-1
6.257619770E-1,-3.394484520E-5,-9.077548981E-3,5.326747894E-2
6.457572780E-1,1.241788268E-4,7.087588310E-3,-4.630661011E-2
6.557579620E-1,8.740276098E-4,2.101397514E-2,-1.546649933E-1
6.757544380E-1,7.955152541E-4,5.304372311E-2,-4.727563858E-1
6.858464900E-1,-1.891929656E-3,5.677306652E-2,-5.140600204E-1
7.059083670E-1,-2.072304487E-3,1.894354820E-2,-1.467981339E-1
7.259971700E-1,-2.533778548E-3,1.595807076E-2,-1.043367386E-1
7.460839670E-1,-2.791300416E-3,1.918315887E-2,-1.164331436E-1
7.658437390E-1,4.392996430E-3,-4.474151134E-2,2.718057632E-1
7.860908300E-1,-3.561452031E-3,3.496766090E-2,-2.063598633E-1
7.961633050E-1,-4.367709160E-3,3.602969646E-2,-2.096881866E-1
8.158853570E-1,3.703229129E-3,-5.355620384E-2,3.151960373E-1
8.358713780E-1,-1.433540136E-3,-5.791330338E-2,3.402509689E-1
8.558293810E-1,-9.668022394E-4,-3.395211697E-2,2.172021866E-1
8.757788940E-1,-7.064081728E-4,3.188669682E-2,-2.078447342E-1
8.858494730E-1,-1.513797790E-3,3.823149204E-2,-2.486391068E-1
9.062990080E-1,3.302425146E-3,-2.790343761E-2,1.793785095E-1
9.260105980E-1,2.859532833E-5,-5.011558533E-4,2.415657043E-3
9.366504290E-1,-2.858296037E-3,2.128255367E-2,-1.580705643E-1
9.564319170E-1,-5.605056882E-3,3.685307503E-2,-3.884887695E-1
9.759188120E-1,-3.869414330E-3,2.845299244E-2,-5.010604858E-1
9.864646920E-1,-3.327779472E-3,2.137634158E-2,-4.971036911E-1
1.005910756E0,-6.601801142E-4,1.651537418E-2,-6.008377075E-1
1.017085638E0,-2.497768961E-3,9.900122881E-3,-5.701694489E-1
1.036384860E0,6.671541929E-2,-1.285574436E-1,-4.306373596E-1
1.055896280E0,1.397134811E-1,-3.587566018E-1,-3.625164032E-1
1.065981004E0,1.725275367E-1,-5.078525543E-1,-3.169708252E-1
1.086343324E0,1.947505176E-1,-7.340877652E-1,-2.484493256E-1
1.106058162E0,2.136946917E-1,-8.483716249E-1,-6.322097778E-2
1.125894175E0,2.225672156E-1,-8.496133089E-1,1.144609451E-1
1.135927582E0,2.109407037E-1,-8.373219967E-1,6.034564972E-2
1.145951994E0,1.894779354E-1,-7.490085959E-1,-1.626052856E-1
1.166305589E0,1.135963723E-1,-5.772687793E-1,1.086931229E-1
1.185880043E0,1.482004672E-1,-4.607549608E-1,-1.743621826E-1
1.205853148E0,8.758451045E-2,-3.387510777E-1,-4.243869781E-1
1.215859100E0,1.382021606E-2,-3.051524758E-1,-3.685722351E-1
1.235863421E0,-6.367986649E-2,-2.622659802E-1,-1.956138611E-1
1.255848316E0,-2.058678865E-2,-1.978358030E-1,-2.539272308E-1
1.266051241E0,-1.522684842E-2,-1.844048500E-1,-3.538789749E-1
1.285965909E0,-1.292531937E-2,-1.944433451E-1,-3.117570877E-1
1.305794146E0,-1.245812327E-2,-2.564641237E-1,-1.791810989E-1
1.315837437E0,2.120971680E-3,-2.855549455E-1,-2.019090652E-1
1.335887913E0,2.134869248E-2,-3.598425388E-1,-1.251926422E-1
1.355885402E0,1.421611011E-2,-4.108877182E-1,-5.701541901E-2
1.375846181E0,3.992896527E-3,-4.346343279E-1,-8.874988556E-2
1.395844201E0,-2.435040474E-2,-3.893759847E-1,-9.651184082E-2
1.405849131E0,-8.390016854E-3,-3.646901846E-1,-1.099729538E-1
1.415912065E0,-1.306388527E-3,-3.344202042E-1,-1.569681168E-1
1.436654031E0,5.327320844E-2,-2.659767270E-1,-1.595668793E-1
1.456095539E0,3.735544905E-2,-2.284983397E-1,-2.130718231E-1
1.475870486E0,5.190954730E-2,-2.086651921E-1,1.510810852E-2
1.485903446E0,1.017550826E-1,-2.149922252E-1,-6.775665283E-2
1.505860913E0,8.126921207E-2,-1.940056682E-1,-3.427944183E-1
1.516104232E0,5.419663340E-2,-2.066311240E-1,-2.258663177E-1
1.535959052E0,5.763296783E-2,-1.894111037E-1,-1.964235306E-1
1.555846924E0,5.248316005E-2,-1.490550041E-1,-1.636304855E-1
1.565877706E0,3.264627978E-2,-1.352782845E-1,-9.463500977E-2
1.586414791E0,3.222301602E-3,-1.145106554E-1,-9.817886353E-2
1.605930156E0,-1.783442125E-2,-1.546453834E-1,-1.273260117E-1
1.616538046E0,-2.796802297E-2,-1.864264011E-1,-1.388845444E-1
1.637046855E0,-8.721739054E-3,-2.399466038E-1,-1.223192215E-1
1.656191088E0,1.430511475E-6,-2.387680411E-1,-1.188097000E-1
1.675970362E0,-4.016630352E-3,-2.260382175E-1,-1.859827042E-1
1.695893384E0,2.125665545E-3,-2.249068022E-1,-1.920757294E-1
1.715817669E0,2.031094581E-2,-1.862224340E-1,-1.945114136E-1
1.725833912E0,2.382287383E-2,-1.646528244E-1,-2.035846710E-1
1.745764467E0,1.620721072E-2,-1.165864468E-1,-2.590789795E-1
1.756537780E0,2.668526024E-2,-1.001955271E-1,-2.587356567E-1
1.775977817E0,2.097564936E-2,-6.364941597E-2,-2.091798782E-1
1.795926954E0,4.154691100E-2,-5.501997471E-2,-1.571493149E-1
1.816102949E0,3.348917514E-2,-6.887507439E-2,-1.768054962E-1
1.826484156E0,4.643019289E-2,-6.469547749E-2,-1.141033173E-1
1.846014919E0,3.696659207E-2,-1.013764143E-1,-2.947139740E-2
1.866340331E0,1.919706166E-2,-1.532456875E-1,-4.682922363E-2
1.886090460E0,7.760867476E-3,-1.547479630E-1,-2.954807281E-1
1.906014398E0,5.472583324E-2,-1.516884565E-1,-5.774497986E-2
1.925846802E0,5.115748942E-2,-1.459331512E-1,-3.455486298E-1
1.936853687E0,3.337311745E-2,-1.423172951E-1,-2.063751221E-1
1.956131078E0,-4.454004392E-2,-1.629378796E-1,-2.136459351E-1
1.976353120E0,-5.361520126E-2,-1.190713644E-1,-8.863735199E-2
1.995942641E0,3.713794798E-2,-4.281675816E-2,-2.286224365E-1
2.015796623E0,4.756445438E-2,-2.544999123E-3,-1.987361908E-1
2.035773088E0,4.286974669E-3,1.116275787E-3,-1.227064133E-1
2.045852924E0,9.413890541E-3,-6.404042244E-3,-1.648645401E-1
2.065787605E0,-1.885540783E-3,-7.650220394E-2,-7.347297668E-2
2.075918750E0,-1.556703448E-2,-1.137505770E-1,-8.833694458E-2
2.085923880E0,-1.958795264E-2,-1.381949186E-1,-8.662796021E-2
2.105898443E0,-1.056551188E-2,-1.384751797E-1,-8.222293854E-2
2.115931929E0,-9.989723563E-3,-1.436364651E-1,-7.705497742E-2
2.135899778E0,3.725849092E-3,-1.366554499E-1,-1.050987244E-1
2.155812939E0,7.291480899E-3,-1.580911875E-1,-9.837150574E-2
2.175788299E0,8.253976703E-3,-1.192351580E-1,-1.010046005E-1
2.186090165E0,2.308271825E-3,-1.085429192E-1,-1.303462982E-1
2.205907450E0,-9.171549231E-3,-5.921316147E-2,6.840133667E-2
2.225837031E0,2.097162604E-2,-5.561101437E-2,-2.440223694E-1
2.236182057E0,2.703474462E-2,-3.049135208E-2,-2.030115128E-1
2.255972636E0,2.194914967E-2,-3.642499447E-2,-5.830860138E-2
2.266025172E0,2.181636542E-2,-2.634930611E-2,-1.260347366E-1
2.286138675E0,3.156740218E-2,-1.907289028E-2,-8.680057526E-2
2.305926113E0,9.863004088E-4,-2.475976944E-3,-1.896476746E-2
2.325805473E0,-3.413375095E-2,-1.370906830E-2,-1.106967926E-1
2.335981174E0,-2.703990787E-2,-2.424657345E-2,-6.741333008E-2
2.346373503E0,-2.091767639E-2,-5.242240429E-2,-6.718730927E-2
2.365949924E0,9.037777781E-3,-9.065258503E-2,5.146026611E-3
2.385807689E0,3.705043346E-2,-1.042954922E-1,-4.828071594E-2
2.406156791E0,-2.596125007E-3,-9.222364426E-2,-7.785892487E-2
2.425837634E0,-2.786777914E-3,-9.806561470E-2,-5.807590485E-2
2.435973634E0,1.298263669E-3,-9.315419197E-2,-9.366035461E-2
2.455937093E0,-1.592206210E-2,-9.713256359E-2,-1.252479553E-1
2.476169103E0,-3.285308927E-2,-7.910430431E-2,-7.161998749E-2
2.496109801E0,-1.558975130E-2,-4.476058483E-2,-1.091699600E-1
2.516004611E0,-1.968742907E-2,-1.590096951E-2,-6.572246552E-2
2.535933860E0,-7.944114506E-3,5.096435547E-3,-1.227827072E-1
2.555928842E0,4.343971610E-3,-6.771087646E-5,-2.028560638E-2
2.575894202E0,2.548024058E-3,-3.228354454E-2,-5.110740662E-3
2.586217100E0,-1.485973597E-3,-3.635168076E-2,2.387428284E-2
2.606496123E0,-1.687603071E-2,-5.109465122E-2,-2.224750519E-1
2.626017545E0,2.734332532E-2,-5.440461636E-2,2.462100983E-2
2.636098564E0,3.391616046E-2,-8.084738255E-2,-2.671537399E-1
2.656070096E0,4.086200148E-2,-8.603632450E-2,-7.288265228E-2
2.675919815E0,-3.444926441E-2,-1.312414408E-1,-1.318054199E-1
2.685937277E0,-5.927859247E-2,-1.190289259E-1,-6.525135040E-2
2.696120721E0,-6.040152907E-2,-8.505487442E-2,-8.352470398E-2
2.706690230E0,-1.835876703E-2,-3.820025921E-2,-1.988105774E-1
2.726105265E0,6.405850500E-2,1.898849010E-2,-1.440105438E-1
2.736171720E0,1.668120176E-2,3.351366520E-2,-4.567146301E-2
2.755921002E0,5.137473345E-3,5.617737770E-3,-1.493854523E-1
2.776382411E0,2.581001818E-2,-2.501928806E-2,-9.236907959E-2
2.795953310E0,3.038101643E-2,-4.915547371E-2,-8.023166656E-2
2.815933314E0,5.030460656E-3,-4.819190502E-2,-1.067590714E-1
2.835929213E0,-6.418414414E-3,-6.497585773E-2,-9.854030609E-2
2.855795271E0,-2.000617981E-2,-6.824493408E-2,-1.263475418E-1
2.865809979E0,-1.119172201E-2,-7.960069180E-2,-1.342821121E-1
2.885918054E0,-1.741953567E-2,-6.685590744E-2,-1.274623871E-1
2.896512829E0,-1.270528138E-2,-5.001270771E-2,-1.400804520E-1
2.907063758E0,-1.026113704E-2,-2.697241306E-2,-1.694240570E-1
2.926051056E0,-5.322977901E-3,2.674901485E-2,-7.498931885E-2
2.946713037E0,5.005322397E-3,-1.278269291E-2,-1.938009262E-1
2.966018336E0,-1.380733028E-2,-3.331184387E-2,-7.581710815E-4
2.985825560E0,1.776375622E-2,-1.100826263E-2,-1.770277023E-1
2.995856321E0,3.436139598E-2,1.440703869E-2,-1.350860596E-1
3.016585381E0,1.980067790E-2,3.865551949E-2,-3.914070129E-2
3.036247633E0,-7.719296962E-3,5.465376377E-2,-1.817464828E-1
3.055995371E0,-1.611530781E-3,1.075661182E-2,-2.074136734E-1
3.075835431E0,2.405838668E-2,-3.520476818E-2,-1.379184723E-1
3.095839104E0,3.358069807E-2,-5.434513092E-2,-1.336345673E-1
3.115760699E0,2.314797789E-2,-2.936887741E-2,-1.842851639E-1
3.126035792E0,-3.037691116E-3,-3.182113171E-2,-1.569385529E-1
3.145848088E0,3.046129644E-2,-3.515577316E-2,-1.442689896E-1
3.156059252E0,3.913191706E-2,-4.802799225E-2,-1.565513611E-1
3.175920945E0,7.985576987E-3,-6.082713604E-2,-1.943101883E-1
3.195880404E0,-1.823841408E-2,-3.769183159E-2,-1.506605148E-1
3.206135774E0,-2.482748032E-2,-3.382956982E-2,-1.401920319E-1
3.225823695E0,-2.663647011E-2,-1.681399345E-2,-1.204967499E-1
3.236282211E0,-3.772684187E-2,-8.649706841E-3,-1.412239075E-1
3.255908169E0,-1.784144714E-2,1.669967175E-2,-1.107673645E-1
3.276857601E0,-4.132330418E-3,3.694677353E-2,-1.149044037E-1
3.296137524E0,1.475097984E-2,3.294289112E-2,-6.538963318E-2
3.315988117E0,-1.005311310E-2,1.262998581E-2,5.061149597E-3
3.335902445E0,-9.935207665E-3,7.740497589E-3,-2.723474503E-1
3.346102264E0,8.815251291E-3,1.497459412E-2,-1.105642319E-1
3.357317590E0,5.236495286E-2,1.296818256E-2,1.193618774E-2
3.376299396E0,3.844155371E-2,1.243257523E-2,-3.411521912E-1
3.395899457E0,-3.698216006E-2,-3.660655022E-2,-8.585357666E-2
3.406125197E0,-4.729694501E-2,-4.220569134E-2,-1.180400848E-1
3.426498069E0,2.768844366E-3,3.407967091E-2,-1.718406677E-1
3.445942303E0,2.945335954E-2,5.127632618E-2,-8.684253693E-2
3.465913778E0,-4.634678364E-3,7.382774353E-2,-2.185821533E-2
3.485976855E0,-4.558799788E-2,7.840311527E-2,-1.938819885E-1
3.505923952E0,-1.044796035E-2,6.735956669E-2,-1.942481995E-1
3.525861742E0,2.449274808E-2,2.545857430E-2,-1.985816956E-1
3.536032433E0,-8.435733616E-3,-3.229856491E-3,-1.934738159E-1
3.546078403E0,-2.744861320E-2,-9.523749352E-3,-1.593799591E-1
3.557682091E0,-3.517255932E-2,-3.558540344E-2,-1.181783676E-1
3.576320183E0,-4.161000252E-3,-4.965615273E-2,-1.407041550E-1
3.595996021E0,3.041884303E-2,-6.811726093E-2,-1.313495636E-1
3.606372098E0,3.601619974E-2,-6.839120388E-2,-1.622867584E-1
3.616600866E0,3.637576476E-2,-5.185055733E-2,-2.122240067E-1
3.636013705E0,1.161547750E-2,-3.089249134E-2,-1.918420792E-1
3.655807162E0,-4.460748285E-3,3.407251835E-2,1.202201843E-1
3.665853867E0,-3.676205873E-2,3.692436218E-2,-1.554737091E-1
3.685762723E0,-5.344850197E-2,4.473948479E-2,-2.607965469E-1
3.696023600E0,-1.311196685E-1,2.054369450E-2,-6.120491028E-2
3.715950912E0,-2.563881576E-1,1.633167267E-4,-3.719549179E-1
3.726101757E0,-3.211748004E-1,7.449984550E-3,-3.783359528E-1
3.745905060E0,-2.981362939E-1,5.449032784E-2,-3.007602692E-1
3.765896485E0,-2.032437176E-1,1.404156089E-1,-4.393863678E-1
3.785870982E0,-4.377596676E-1,2.239691019E-1,-4.772977829E-1
3.795882131E0,-6.104822755E-1,2.229807377E-1,-3.849315643E-1
3.805953773E0,-6.891576648E-1,1.977762580E-1,-2.470903397E-1
3.826345590E0,-3.851659000E-1,1.352683306E-1,1.025781631E-1
3.845915224E0,2.893294394E-1,5.938684940E-2,1.042833328E-1
3.866868440E0,6.911343932E-1,5.813002586E-3,-1.082038879E-2
3.886058398E0,5.281286240E-1,-1.171545982E-1,1.484622955E-1
3.907478075E0,5.705690980E-1,-2.529102564E-1,9.429454803E-2
3.926281536E0,8.217651844E-1,-2.285954952E-1,2.544593811E-2
3.946015774E0,8.982297182E-1,-8.498370647E-2,4.266357422E-2
3.965826911E0,7.869347930E-1,4.825592041E-4,-3.645229340E-2
3.976484210E0,6.509149075E-1,5.705595016E-3,-1.218643188E-1
3.987611896E0,4.994016886E-1,-3.765416145E-2,-1.625394821E-1
4.006235564E0,1.394217014E-1,-9.294056892E-2,-1.714096069E-1
4.026105062E0,3.165718913E-2,-9.438890219E-2,-2.282295227E-1
4.045897280E0,5.103802681E-2,-1.652294397E-2,-3.026905060E-1
4.055954108E0,2.265432477E-2,1.557952166E-2,-2.747621536E-1
4.075800296E0,-1.061961055E-1,8.959430456E-2,-2.978687286E-1
4.085829652E0,-1.716575027E-1,1.299608946E-1,-3.323040009E-1
4.095883653E0,-2.339646220E-1,1.362053156E-1,-3.751897812E-1
4.115785743E0,-3.212773502E-1,1.487753987E-1,-1.795864105E-1
4.125802402E0,-3.228139281E-1,1.607076526E-1,-2.070741653E-1
4.145843100E0,-3.680283129E-1,2.245534062E-1,-7.750701904E-2
4.155918659E0,-4.282537997E-1,2.394531965E-1,-1.421413422E-1
4.175768921E0,-6.025259495E-1,2.091646791E-1,-1.664142609E-1
4.185851986E0,-6.223408580E-1,1.781180501E-1,-1.257495880E-1
4.205852357E0,-3.211902082E-1,1.399663091E-1,-6.070995331E-2
4.226415510E0,3.430260718E-2,5.829709768E-2,8.320617676E-2
4.246074384E0,1.155781448E-1,-3.163397312E-2,-5.993747711E-2
4.256125082E0,3.020633757E-2,-4.880994558E-2,-1.560125351E-1
4.275940436E0,-2.794048488E-1,-7.230085135E-2,-8.318996429E-2
4.285992014E0,-4.195962548E-1,-7.110232115E-2,-1.476383209E-2
4.305954734E0,-4.763772786E-1,-3.440868855E-2,-1.028938293E-1
4.317269293E0,-3.482725620E-1,-2.459245920E-2,-1.602239609E-1
4.336234353E0,-2.726019025E-1,-6.090372801E-2,6.171226501E-3
4.355896308E0,-2.103394866E-1,-2.035528421E-2,-2.094268799E-2
4.365942268E0,-1.295217574E-1,3.101098537E-2,-1.257200241E-1
4.377075586E0,-3.767402470E-2,8.114844561E-2,-1.541929245E-1
4.396098869E0,5.904378742E-2,1.318475604E-1,-1.135807037E-1
4.406113470E0,2.166524529E-2,1.386466026E-1,-1.740884781E-1
4.426075958E0,-7.695583999E-2,1.844163537E-1,-3.175306320E-1
4.446037933E0,-1.376454830E-1,2.592831254E-1,-2.197008133E-1
4.457208887E0,-1.112321913E-1,2.705075145E-1,-1.762390137E-3
4.476157168E0,4.830387235E-2,2.673254609E-1,-3.333835602E-1
4.495945306E0,2.894860506E-1,1.789367795E-1,-9.884738922E-2
4.515959085E0,4.617973566E-1,8.136564493E-2,1.868247986E-2
4.535889431E0,4.910165071E-1,5.139046907E-2,3.742828369E-1
4.546572605E0,5.931978822E-1,7.044112682E-2,4.759235382E-1
4.566112043E0,5.855650902E-1,3.378504515E-2,2.183933258E-1
4.585898713E0,3.142892122E-1,-4.851263762E-2,9.729194641E-2
4.605895445E0,5.401074886E-4,-1.028211713E-1,1.497936249E-2
4.626547389E0,-2.043586820E-1,-8.565324545E-2,-6.344890594E-2
4.646056872E0,-2.402795255E-1,-5.688947439E-2,-1.967153549E-1
4.665909959E0,-2.865429819E-1,-6.797873974E-2,-3.261423111E-1
4.685794598E0,-3.040760159E-1,-9.840989113E-2,-3.019752502E-1
4.695833756E0,-2.835023999E-1,-9.201872349E-2,-2.227830887E-1
4.715779622E0,-2.579425871E-1,-8.488690853E-2,-7.285213470E-2
4.725830357E0,-2.745988369E-1,-7.878512144E-2,-9.324645996E-2
4.735832652E0,-2.796845734E-1,-7.177293301E-2,-1.508903503E-1
4.745875283E0,-3.310804963E-1,-5.959939957E-2,-2.193822861E-1
4.765769588E0,-4.155575037E-1,-2.944678068E-2,-3.167572021E-1
4.776306668E0,-4.142384529E-1,1.106458902E-2,-3.287849426E-1
4.796800676E0,-3.745110035E-1,-1.561965942E-1,-1.128120422E-1
4.816336600E0,-2.077050954E-1,-1.179342270E-1,2.229080200E-1
4.835882898E0,-1.038163900E-2,-9.420317411E-2,2.884540558E-1
4.845886005E0,-1.003697515E-3,-9.615105391E-2,2.988481522E-1
4.865765107E0,-8.279071748E-2,-5.829650164E-2,1.227617264E-1
4.885728346E0,-2.273735255E-1,3.684628010E-2,-1.180868149E-1
4.895780083E0,-3.239865005E-1,1.095119715E-1,-2.156076431E-1
4.915811426E0,-4.002591968E-1,2.950069606E-1,-3.108530045E-1
4.926187248E0,-3.340640068E-1,3.722629249E-1,-3.577308655E-1
4.946090691E0,-1.167836264E-1,2.673898339E-1,-3.016595840E-1
4.965959976E0,2.494694144E-1,1.480025053E-1,-3.207035065E-1
4.985889419E0,8.782882094E-1,3.055899441E-1,-2.343111038E-1
4.995905412E0,1.129432321E0,2.558708489E-1,-9.147644043E-3
5.015847823E0,1.143941879E0,1.591098309E-2,-8.062171936E-2
5.025891593E0,7.383275628E-1,-2.172163725E-1,-3.133974075E-1
5.045969980E0,3.446979821E-1,-2.721156478E-1,-8.320302963E-1
5.065783196E0,2.346058786E-1,-2.653023005E-1,-3.662900925E-1
5.076047092E0,2.594282627E-1,-2.643178105E-1,6.686782837E-2
5.095952332E0,2.127254009E-1,-2.426944971E-1,3.522548676E-1
5.115893264E0,1.066005081E-1,-1.606975198E-1,7.950878143E-2
5.126902412E0,4.349242151E-2,-1.056574583E-1,-9.414672852E-3
5.146733700E0,-5.726507679E-2,1.753729582E-2,-1.240434647E-1
5.166090415E0,-2.106197178E-1,1.779730320E-1,-3.223152161E-1
5.185919113E0,-4.210413098E-1,3.794542849E-1,-4.735193253E-1
5.205863904E0,-3.920943737E-1,5.003218055E-1,-2.615890503E-1
5.225818279E0,-3.274246454E-1,3.419129252E-1,3.097085953E-1
5.235855284E0,-2.912381589E-1,2.066972256E-1,3.704404831E-1
5.246123058E0,-2.832362056E-1,-1.334059238E-2,-1.208715439E-1
5.266707625E0,-3.129705191E-1,-8.018887043E-2,-6.855850220E-1
5.286230602E0,-3.229599893E-1,-8.744561672E-2,-5.595455170E-1
5.305888951E0,-2.551321387E-1,-1.569021344E-1,4.225387573E-1
5.325791051E0,-1.548192501E-1,-2.881711721E-1,-2.433910370E-1
5.335871123E0,-7.801406831E-2,-3.194777369E-1,-4.960384369E-1
5.345910248E0,-9.308919311E-3,-3.225410581E-1,-4.074592590E-1
5.356007805E0,4.402291030E-2,-2.962597013E-1,-6.133937836E-2
5.366097417E0,7.928994298E-2,-2.122800946E-1,1.974315643E-1
5.385965251E0,1.792053878E-1,8.318012953E-2,-1.131019592E-1
5.396491505E0,2.737675309E-1,2.419685423E-1,-4.167480469E-1
5.415920101E0,2.504684329E-1,4.189850986E-1,-5.847024918E-1
5.435903904E0,9.822707623E-3,2.918098271E-1,-4.260406494E-1
5.446219737E0,-8.709716797E-2,1.285188794E-1,-3.828954697E-1
5.465976703E0,-2.763834298E-1,-2.176077962E-1,-2.902803421E-1
5.485883497E0,-2.170253545E-1,-3.697201014E-1,1.518793106E-1
5.495897398E0,-1.185603291E-1,-3.224957585E-1,7.401847839E-2
5.515809062E0,-8.877243102E-2,-1.426324248E-1,-1.732540131E-1
5.526305129E0,-1.697912961E-1,-7.874298096E-2,-2.083606720E-1
5.546007778E0,-2.623808980E-1,2.365857363E-2,-2.866668701E-1
5.565886227E0,-1.698046923E-1,1.606047153E-2,-3.534603119E-2
5.576245013E0,-9.023670107E-2,-5.294787884E-2,2.232637405E-1
5.595948804E0,1.616121382E-1,-2.870257497E-1,4.060401917E-1
5.615799244E0,3.760122359E-1,-4.314892888E-1,1.078014374E-1
5.626251235E0,4.185246825E-1,-4.609014392E-1,-1.000852585E-1
5.645981583E0,2.227895260E-1,-3.455216289E-1,-4.053144455E-1
5.656688134E0,6.239371747E-2,-2.171667218E-1,-5.133600235E-1
5.676265886E0,-2.810849249E-1,3.416564167E-1,-4.464216232E-1
5.695998332E0,-2.480798513E-1,5.546569228E-1,-3.233242035E-1
5.715822823E0,2.688874006E-1,1.066411972E0,-2.876663208E-2
5.725841827E0,4.556983113E-1,1.113053560E0,-9.340286255E-2
5.737933074E0,4.936119616E-1,1.036425471E0,-1.332416534E-1
5.756502017E0,1.536464989E-1,5.714821815E-1,-2.587223053E-2
5.776206271E0,-2.551497817E-1,-5.014869571E-2,-2.198715210E-1
5.795877985E0,-5.868318677E-1,-4.774287641E-1,-7.837409973E-1
5.815779508E0,-8.146048784E-1,-5.102963448E-1,-4.299077988E-1
5.835756776E0,-7.996890545E-1,-2.509921491E-1,-1.140699387E-1
5.845838725E0,-6.705233455E-1,-7.332408428E-2,-2.000894547E-1
5.856177721E0,-4.513384700E-1,9.183332324E-2,-2.563743591E-1
5.866800370E0,-1.130780801E-1,1.964375377E-1,-1.319055557E-1
5.886014596E0,5.674320459E-1,2.264845073E-1,3.722267151E-1
5.906038804E0,7.522569895E-1,1.257540584E-1,3.681335449E-1
5.925943306E0,4.373827875E-1,-6.451186538E-2,-2.195081711E-1
5.945819575E0,-9.358958155E-2,-2.428923249E-1,-2.508087158E-1
5.955836193E0,-1.625385731E-1,-2.451278865E-1,-2.889356613E-1
5.966220179E0,-1.836569011E-1,-2.356086075E-1,-3.293485641E-1
5.985926827E0,-1.097058877E-1,-1.456152499E-1,-3.705139160E-1
6.005883085E0,-8.093385026E-3,-9.627532959E-2,-3.423442841E-1
6.025767722E0,-1.117623970E-2,-1.318936348E-1,-2.413311005E-1
6.035853313E0,-4.177401215E-2,-1.467780471E-1,-2.076501846E-1
6.046262280E0,-7.762420177E-2,-1.757930517E-1,-1.871891022E-1
6.066130881E0,-1.223267913E-1,-1.790043116E-1,-1.092329025E-1
6.085833917E0,-9.933644533E-2,-1.146336198E-1,-7.818508148E-2
6.095877713E0,-6.267986447E-2,-8.275455236E-2,-9.383487701E-2
6.115852330E0,-1.233053394E-2,-4.215598106E-3,-1.360063553E-1
6.135846557E0,-3.334569186E-2,2.908509970E-2,5.161857605E-2
6.155817797E0,-1.057155281E-1,2.429264784E-2,-3.810129166E-1
6.165855564E0,-1.042750925E-1,2.689066529E-2,-2.086648941E-1
6.185962874E0,-1.537948102E-1,6.889718771E-2,-2.050437927E-1
6.205791537E0,-1.516571641E-1,1.336069405E-1,-2.471675873E-1
6.215901340E0,-1.197052747E-1,1.755701900E-1,-1.634836197E-1
6.226190486E0,-4.884708300E-2,1.879744530E-1,-9.295272827E-2
6.246694130E0,5.714401975E-2,2.083884776E-1,-7.283401489E-2
6.266136968E0,7.456791401E-2,1.534245014E-1,-1.246557236E-1
6.286051037E0,-4.935219884E-3,8.947533369E-2,-2.423458099E-1
6.305882471E0,-2.590803429E-2,2.406719327E-2,-4.491615295E-2
6.315992979E0,-4.953031242E-2,-4.632502794E-3,-8.202362061E-2
6.326034145E0,-6.308735907E-2,-3.632059693E-2,-1.897850037E-1
6.345880709E0,-9.384560585E-2,-7.960841060E-2,-1.682910919E-1
6.355905171E0,-7.934361696E-2,-8.304148912E-2,-9.405612946E-2
6.375843374E0,2.769757062E-3,-7.777342200E-2,-1.192121506E-1
6.395773160E0,-1.668738946E-2,-5.083680153E-2,-2.079210281E-1
6.406024756E0,-4.447578266E-2,-3.060433269E-2,-2.450885773E-1
6.425909299E0,-4.081648961E-2,4.103422165E-3,-2.283849716E-1
6.445959718E0,3.266666457E-2,-6.020069122E-4,-2.259845734E-1
6.465904680E0,8.577807993E-2,-1.902019978E-2,-2.343759537E-1
6.485789658E0,3.167228401E-2,-9.779661894E-3,-1.805801392E-1
6.495791651E0,-1.457953453E-2,-2.487510443E-3,-1.758460999E-1
6.505820902E0,-5.576755106E-2,7.249414921E-3,-1.818828583E-1
6.516986413E0,-6.632546335E-2,1.974251866E-2,-1.747322083E-1
6.536147734E0,-2.557086572E-2,2.264428139E-2,-8.850097656E-2
6.546845350E0,-1.797049493E-2,2.218115330E-2,-6.930351257E-2
6.566533536E0,-2.733940631E-2,1.986086369E-2,-4.055213928E-2
6.585931338E0,-3.778749704E-2,1.818451285E-2,-2.775983810E-1
6.605886856E0,-5.322862417E-2,3.572344780E-3,-9.661388397E-2
6.625794863E0,-1.195097119E-1,-1.834598184E-2,-5.350685120E-2
6.635833524E0,-1.287287772E-1,-2.394634485E-2,-2.536430359E-1
6.645869677E0,-9.294368327E-2,-2.590385079E-2,-3.747529984E-1
6.665809331E0,1.554665342E-2,-4.839122295E-3,-1.819648743E-1
6.685822032E0,2.236682177E-2,2.276760340E-2,-1.865692139E-1
6.695839322E0,-3.493712842E-2,6.063401699E-2,-2.548484802E-1
6.717092992E0,-1.511665732E-1,1.065199673E-1,-1.986522675E-1
6.736213780E0,-4.042898491E-2,1.148718596E-1,-6.921672821E-2
6.756007766E0,1.564989537E-1,2.930748463E-2,-1.121578217E-1
6.775835806E0,2.304548919E-1,-5.923160911E-2,-1.263732910E-1
6.795951658E0,1.722308099E-1,-9.111779928E-2,-1.274738312E-1
6.816625439E0,-1.141045243E-2,-5.453708768E-2,-1.741228104E-1
6.836108767E0,-3.562344611E-2,-2.770873904E-2,-1.753568649E-1
6.855948869E0,1.407719776E-2,2.278804779E-3,-1.263408661E-1
6.875865509E0,2.250437066E-2,-2.850958705E-2,-1.527976990E-1
6.886414342E0,-1.146000251E-2,-3.233909607E-2,-1.887893677E-1
6.906009612E0,-2.236642689E-2,-4.856169224E-3,-2.730369568E-2
6.925841034E0,-6.878953427E-3,1.121073961E-3,-1.674776077E-1
6.935857859E0,1.087520272E-2,2.468347549E-2,-4.261674881E-1
6.955764124E0,-1.140236109E-2,5.584198236E-2,-2.226009369E-1
6.966013936E0,-4.912956804E-2,4.491677880E-2,-7.637214661E-2
6.986033807E0,-1.031907126E-1,2.901998162E-2,-2.305631638E-1
7.005906145E0,-8.702126890E-2,1.534730196E-2,-1.478500366E-1
7.016808045E0,-6.670220196E-2,8.512824774E-3,-1.058778763E-1
7.036153936E0,-1.013483107E-2,1.408159733E-4,-9.134864807E-2
7.055908586E0,-6.841182709E-3,7.267504930E-3,-8.526992798E-2
7.065917495E0,-9.277142584E-3,-8.670598269E-3,-2.529506683E-1
7.086680205E0,-1.494929194E-3,-1.899245381E-2,-7.337665558E-2
7.106068981E0,-1.475758851E-2,-2.697783709E-2,-1.176099777E-1
7.125928962E0,-6.248704344E-2,-3.809124231E-3,-1.918668747E-1
7.145971275E0,-7.403367758E-2,1.700025797E-2,-1.379632950E-1
7.165841489E0,-5.280332267E-2,2.676206827E-2,-1.666107178E-1
7.175859129E0,-3.969339281E-2,2.732545137E-2,-1.749553680E-1
7.185904251E0,-3.376024216E-2,4.236140847E-2,-1.665344238E-1
7.205866855E0,-4.084654152E-2,5.408492684E-2,-2.107038498E-1
7.225774902E0,-3.439705074E-2,4.395657778E-2,-2.009553909E-1
7.235851330E0,-2.518561482E-2,3.172931075E-2,-1.397905350E-1
7.256403377E0,1.898480952E-2,-4.538387060E-3,-1.335763931E-1
7.276048147E0,1.623512059E-2,-3.803482652E-2,-1.800756454E-1
7.286279150E0,-4.804022610E-3,-3.346157074E-2,-1.787042618E-1
7.307144955E0,1.860659570E-2,-1.537483931E-2,-1.040458679E-1
7.326141393E0,5.284297466E-2,-9.414672852E-3,-1.323366165E-1
7.345903705E0,4.599121213E-2,1.030296087E-2,-3.367681503E-1
7.365810533E0,7.376487553E-2,2.752298117E-2,-1.167774200E-2
7.375825447E0,7.462269068E-2,6.741940975E-3,7.015609741E-2
7.395985930E0,2.239357308E-2,-3.217279911E-2,-2.550735474E-1
7.416043616E0,-7.986845076E-2,-5.706876516E-2,-4.416484833E-1
7.435912660E0,-4.993307590E-2,-5.021512508E-2,-9.711170197E-2
7.455866743E0,2.508823201E-2,-1.508796215E-2,-4.338741302E-2
7.475881358E0,2.077825367E-3,4.976451397E-2,-1.733646393E-1
7.485886459E0,-3.103420883E-2,9.399592876E-2,-1.406860352E-1
7.506363813E0,-2.041595057E-2,7.104164362E-2,-1.638355255E-1
7.517889874E0,-3.154602647E-2,3.650200367E-2,-1.920967102E-1
7.536981568E0,-4.607960582E-2,-2.390325069E-2,-1.483421326E-1
7.556054205E0,-5.175291374E-2,-7.180356979E-2,-1.252393723E-1
7.566284419E0,-4.993831739E-2,-8.006989956E-2,-1.307382584E-1
7.585983733E0,-6.235690787E-2,-8.055579662E-2,-1.346645355E-1
7.596035068E0,-6.949460506E-2,-8.574378490E-2,-1.294898987E-1
7.615908348E0,-4.206168652E-2,-5.373263359E-2,-1.659526825E-1
7.635878113E0,-9.271111339E-3,-3.246784210E-2,-1.414422989E-1
7.646070930E0,-3.549121320E-4,-1.778912544E-2,-1.531381607E-1
7.666660399E0,9.149402380E-3,6.058752537E-3,-2.412214279E-1
7.687038913E0,1.599611714E-2,8.702337742E-3,2.275943756E-2
7.706107864E0,1.368376985E-2,5.216777325E-3,-4.233026505E-1
7.716167472E0,2.255413681E-2,5.208253860E-4,-3.427181244E-1
7.735990004E0,2.635000274E-2,-1.976859570E-2,-8.176422119E-2
7.755852147E0,1.262804493E-2,3.913760185E-3,-1.252632141E-1
7.766102661E0,1.447363570E-2,3.007650375E-2,-7.344245911E-2
7.786168957E0,1.721487939E-2,3.430098295E-2,-1.158676147E-1
7.796229946E0,1.933016628E-2,4.115831852E-2,-1.131362915E-1
7.816106677E0,2.382305078E-2,5.035102367E-3,-1.160087585E-1
7.826129587E0,2.165634371E-2,-1.657515764E-2,-1.611347198E-1
7.845934686E0,1.316163689E-2,-3.701025248E-2,-1.867284775E-1
7.855942732E0,1.155407541E-2,-3.949791193E-2,-1.503429413E-1
7.866045766E0,1.385025121E-2,-5.166572332E-2,-1.211452484E-1
7.885928965E0,-1.295005903E-3,-4.296660423E-2,-1.956501007E-1
7.905897942E0,-1.141058467E-2,-5.636578798E-2,-2.067346573E-1
7.925862075E0,-1.703701727E-2,-5.524861813E-2,-1.817808151E-1
7.935898276E0,-1.867974922E-2,-6.092625856E-2,-2.015886307E-1
7.946047678E0,-3.803418949E-2,-5.688303709E-2,-2.213802338E-1
7.966916084E0,-4.343018681E-2,-4.576069117E-2,-1.974468231E-1
7.986390203E0,-1.635093801E-2,-1.604735851E-2,-1.017284393E-1
8.006130765E0,-2.675930411E-2,-1.261204481E-2,-1.236257553E-1
8.025939603E0,-5.148671940E-2,-6.750166416E-3,-1.876287460E-1
8.045853518E0,-1.381836832E-2,5.125999451E-5,-8.143901825E-2
8.065895539E0,3.062761202E-2,6.294071674E-3,-6.256866455E-2
8.075921179E0,3.129792958E-2,6.590306759E-3,-1.148757935E-1
8.095763587E0,6.607964635E-3,8.124768734E-3,-3.345460892E-1
8.115827782E0,3.106892481E-2,-6.413280964E-3,-9.747695923E-2
8.135823024E0,4.307980090E-2,-5.234456062E-2,-2.038745880E-1
8.145835443E0,1.806730032E-2,-6.216406822E-2,-2.837524414E-1
8.165766450E0,-6.617368758E-2,-8.241230249E-2,-2.841100693E-1
8.175807989E0,-7.198263705E-2,-8.652830124E-2,-2.031202316E-1
8.185863941E0,-3.659924120E-2,-5.289441347E-2,-8.842277527E-2
8.195883271E0,2.715623938E-3,-2.403759956E-2,-3.728675842E-2
8.205902389E0,4.979864508E-2,3.314661980E-2,-1.706609726E-1
8.225816194E0,2.611572668E-2,5.456471443E-2,-1.608200073E-1
8.245829463E0,-1.160185784E-4,2.385711670E-2,-1.227321625E-1
8.255887725E0,-4.523889162E-3,-5.952358246E-3,-1.540231705E-1
8.266119330E0,-1.703914441E-2,-4.193723202E-2,-1.768169403E-1
8.286093332E0,-2.284261212E-2,-7.743096352E-2,-1.015310287E-1
8.305959060E0,-1.554968208E-2,-9.991407394E-2,-1.056241989E-1
8.325839737E0,-2.128764614E-2,-9.614157677E-2,-1.413669586E-1
8.335853122E0,-3.109316714E-2,-1.002796888E-1,-1.335668564E-1
8.355859320E0,-1.688514836E-2,-8.351707458E-2,-1.215600967E-1
8.366128434E0,2.683950588E-3,-7.159888744E-2,-1.305913925E-1
8.385941742E0,3.540954739E-2,-4.317545891E-2,-1.942977905E-1
8.406077074E0,1.052104682E-2,-1.367986202E-2,-2.984294891E-1
8.425993615E0,1.172142290E-2,1.280593872E-2,6.826496124E-2
8.435995660E0,1.700982451E-2,1.089549065E-2,-3.309354782E-1
8.455849681E0,-2.662329003E-3,-1.272261143E-2,-1.567993164E-1
8.466238016E0,-5.004696548E-3,-3.085005283E-2,-1.498222351E-1
8.485997835E0,1.483099349E-2,-2.640461922E-2,-1.659240723E-1
8.505874287E0,9.899104014E-3,8.239388466E-3,-7.705783844E-2
8.525780262E0,5.945412442E-3,3.926169872E-2,-1.225395203E-1
8.536528879E0,8.101906627E-3,4.222798347E-2,-1.399602890E-1
8.556110186E0,-2.659463137E-2,-8.374452591E-4,-8.366298676E-2
8.575836242E0,4.584286362E-3,-3.460860252E-2,-1.554794312E-1
8.585890359E0,1.883862540E-2,-5.212008953E-2,-1.525573730E-1
8.605825126E0,8.810244501E-3,-5.898797512E-2,-1.011276245E-1
8.625847308E0,-1.488925144E-2,-5.864477158E-2,-1.478567123E-1
8.635882142E0,-4.577245563E-3,-5.713450909E-2,-1.509370804E-1
8.655788306E0,6.848357618E-3,-6.662845612E-2,-1.510229111E-1
8.665790089E0,-3.453921527E-3,-6.454288960E-2,-1.983137131E-1
8.685739343E0,-2.167891338E-2,-4.631888866E-2,-1.622800827E-1
8.696413993E0,-1.576096565E-2,-4.435276985E-2,-1.664800644E-1
8.715915657E0,-2.972118556E-3,-1.637601852E-2,-2.239398956E-1
8.735854732E0,5.011044443E-3,-2.070689201E-2,-1.484947205E-1
8.755847353E0,-2.956584096E-3,-1.319050789E-3,-1.115331650E-1
8.765910185E0,1.409388334E-2,-1.949429512E-3,-1.458301544E-1
8.775915924E0,1.895852387E-3,1.026749611E-2,-1.873569489E-1
8.795823692E0,-8.687816560E-3,1.457905769E-2,-1.481246948E-1
8.805944475E0,2.806559205E-4,1.811575890E-2,-1.151466370E-1
8.825877093E0,2.546387166E-2,7.217764854E-3,-6.115913391E-2
8.835879118E0,1.343932748E-2,3.219962120E-3,-6.055068970E-2
8.855865532E0,-1.334170997E-2,-2.458059788E-2,-1.721096039E-1
8.875861693E0,-1.086995751E-2,-6.866812706E-3,-2.130050659E-1
8.886178032E0,3.884083778E-2,-5.407881737E-2,-1.477231979E-1
8.905993959E0,1.575248688E-2,-5.772912502E-2,-2.380685806E-1
8.926013396E0,-4.985654354E-2,-7.876729965E-2,-2.348194122E-1
8.945871003E0,-3.802382946E-2,-4.993915558E-2,-3.075790405E-2
8.965777357E0,6.060218811E-2,2.462625504E-2,-1.730327606E-1
8.976078156E0,6.437503546E-2,4.429125786E-2,-2.420740128E-1
8.995910161E0,1.344316453E-2,5.262148380E-2,-1.485481262E-1
9.006150990E0,-1.899709553E-2,5.475568771E-2,-9.606075287E-2
9.025968735E0,-1.968240738E-2,9.838581085E-3,-1.610965729E-1
9.045797910E0,-1.936900616E-2,-2.414119244E-2,-1.306877136E-1
9.055999422E0,-1.235991716E-2,-3.344964981E-2,-1.119747162E-1
9.075881702E0,1.108571887E-3,-4.846370220E-2,-9.181976318E-2
9.085905953E0,-4.558816552E-3,-3.849589825E-2,-1.203022003E-1
9.106244181E0,-1.456365734E-2,-6.082868576E-2,-1.164636612E-1
9.125858061E0,1.462829858E-2,-6.112670898E-2,-1.043367386E-1
9.135935982E0,3.613351285E-2,-5.406486988E-2,-1.067342758E-1
9.146311765E0,1.744204015E-2,-4.521036148E-2,-1.307630539E-1
9.157224553E0,2.142154425E-2,-1.956963539E-2,-1.667585373E-1
9.176183388E0,1.175069064E-2,2.326452732E-2,-1.308412552E-1
9.195923969E0,2.389289439E-2,-6.546735764E-3,-1.769428253E-1
9.206607920E0,1.340809464E-2,-8.249759674E-3,-2.941284180E-1
9.226303423E0,-6.245374680E-3,-3.199839592E-2,-1.162281036E-1
9.245975567E0,3.683976829E-2,-1.747977734E-2,-1.404647827E-1
9.265830100E0,1.150448620E-2,1.021683216E-2,-1.901836395E-1
9.276392991E0,3.582529724E-3,3.827404976E-2,-1.372251511E-1
9.295986058E0,-2.637192607E-3,4.088592529E-2,-1.008052826E-1
9.306445293E0,-4.953563213E-3,4.263484478E-2,-1.269941330E-1
9.325993273E0,-1.045097411E-2,8.817315102E-3,-1.173877716E-1
9.336008900E0,-1.400491595E-2,-1.466703415E-2,-1.378183365E-1
9.355889970E0,2.664743364E-2,-5.674660206E-2,-1.164102554E-1
9.375903401E0,1.282978058E-2,-3.370761871E-2,-1.248464584E-1
9.395870001E0,-1.220028102E-2,-2.035200596E-2,-1.692571640E-1
9.405898202E0,-7.307693362E-3,-1.469540596E-2,-1.824769974E-1
9.425799027E0,7.336288691E-4,-3.388464451E-2,-1.740970612E-1
9.435850553E0,-8.070021868E-3,-3.329217434E-2,-1.907606125E-1
9.445876837E0,-1.087528467E-2,-2.618348598E-2,-1.810064316E-1
9.455877010E0,-1.759976149E-3,-2.101004124E-2,-1.807575226E-1
9.475768456E0,4.302278161E-3,5.057573318E-3,-1.658658981E-1
9.485794330E0,3.488510847E-3,-5.672931671E-3,-1.668596268E-1
9.496002762E0,1.263710856E-2,6.259083748E-3,-1.905975342E-1
9.515896912E0,-1.286961138E-2,4.490137100E-3,-1.507692337E-1
9.535930671E0,-1.442119479E-3,5.091786385E-3,-1.145305634E-1
9.547206792E0,-2.216398716E-4,6.360888481E-3,-1.358633041E-1
9.566133440E0,-4.763051867E-3,1.485300064E-2,-1.293115616E-1
9.585850831E0,4.145234823E-3,5.703806877E-3,-8.442592621E-2
9.595854632E0,1.247254014E-2,-2.386331558E-3,-6.266784668E-2
9.606358746E0,-3.095924854E-3,-1.465451717E-2,-6.254768372E-2
9.626025439E0,-1.292861998E-2,-2.049589157E-2,-1.786785126E-1
9.645835107E0,-8.438408375E-3,2.905011177E-3,-1.691999435E-1
9.655873099E0,2.007883787E-2,5.076408386E-3,-1.319351196E-1
9.675869496E0,2.889131010E-2,-2.436900139E-2,-2.933177948E-1
9.686092220E0,1.829731464E-2,-3.376936913E-2,-1.876592636E-1
9.706782792E0,-3.590625525E-2,-4.980230331E-2,-1.912670135E-1
9.726173130E0,-1.100803912E-2,-5.978107452E-3,-1.010637283E-1
9.745937928E0,7.555516064E-2,3.622663021E-2,-2.075071335E-1
9.765822513E0,3.472767770E-2,4.470837116E-2,-9.930324554E-2
9.785989532E0,3.008946776E-3,4.706299305E-2,-5.416107178E-2
9.806222003E0,-1.042945683E-2,8.487701416E-5,-1.175794601E-1
9.816834802E0,-1.044853032E-2,-1.690828800E-2,-1.074800491E-1
9.836161575E0,-1.843701303E-2,-5.671095848E-2,-9.339714050E-2
9.846167582E0,-2.094824612E-2,-5.819582939E-2,-1.146011353E-1
9.865876059E0,-4.911810160E-3,-6.291091442E-2,-1.247863770E-1
9.885796395E0,-3.422811627E-3,-6.913745403E-2,-1.134710312E-1
9.905835646E0,7.338464260E-3,-4.884231091E-2,-7.595825195E-2
9.915842769E0,1.730650663E-2,-4.625546932E-2,-9.267234802E-2
9.925920471E0,5.870237947E-3,-3.504800797E-2,-1.179256439E-1
9.945888656E0,5.830496550E-3,1.417112350E-2,-3.076305389E-1
9.956524586E0,1.651862264E-2,3.883934021E-2,1.769065857E-2
9.976004333E0,2.736040950E-2,1.111054420E-2,-3.179616928E-1
9.995891784E0,-1.143063605E-2,1.361203194E-2,-1.198587418E-1
1.001584224E1,1.836225390E-3,4.656028748E-2,-1.172142029E-1
1.002592784E1,1.531921327E-2,7.659125328E-2,-2.319126129E-1
1.004619314E1,-1.958988607E-2,7.009875774E-2,-9.603500366E-2
1.006589736E1,-2.265241742E-2,6.042480469E-2,-1.325864792E-1
1.007592060E1,-2.424693108E-2,5.085396767E-2,-1.333179474E-1
1.008605236E1,-1.936261356E-2,3.656876087E-2,-1.400279999E-1
1.009627758E1,-4.529714584E-3,1.054954529E-2,-1.347351074E-1
1.011599955E1,4.732462764E-2,-2.944660187E-2,-1.109514236E-1
1.013580090E1,6.820228696E-2,-3.075492382E-2,-8.726882935E-2
1.015575451E1,1.910692453E-2,-2.020633221E-2,-1.939249039E-1
1.017585250E1,-2.207651734E-2,-1.791131496E-2,-1.625518799E-1
1.019594143E1,-1.174700260E-2,-3.417432308E-2,-1.512537003E-1
1.021589414E1,-1.289294660E-2,-3.070092201E-2,-1.675662994E-1
1.022591506E1,-3.329634666E-3,-3.308200836E-2,-1.405782700E-1
1.024586991E1,7.203102112E-3,-1.598751545E-2,-1.823167801E-1
1.026585828E1,-1.527845860E-3,2.079832554E-2,-1.702575684E-1
1.028578485E1,-1.260374486E-2,2.989757061E-2,-1.376628876E-1
1.029581680E1,-2.068579197E-2,3.052794933E-2,-1.404857635E-1
1.030875311E1,-8.215874434E-3,4.463410378E-2,-1.265048981E-1
1.032670651E1,-6.503000855E-3,5.487954617E-2,-1.187286377E-1
1.034573797E1,6.251230836E-3,5.693924427E-2,-1.266870499E-1
1.035584593E1,-1.061379910E-3,6.803894043E-2,-1.283874512E-1
1.037584750E1,1.138193905E-2,5.967521667E-2,-6.245899200E-2
1.038624734E1,-4.446506500E-4,5.136966705E-2,-6.078243256E-2
1.040589974E1,-3.731614351E-2,2.326679230E-2,-5.190849304E-2
1.041614354E1,-3.584995866E-2,2.413642406E-2,-1.643743515E-1
1.043648729E1,-2.447754145E-3,5.936741829E-2,-1.414976120E-1
1.045590031E1,4.532577097E-2,5.351877213E-2,-2.784757614E-1
1.046591817E1,3.739930689E-2,2.418184280E-2,-2.984933853E-1
1.048622338E1,-5.565921962E-2,-5.709755421E-2,-2.745714188E-1
1.050573479E1,-3.589655459E-2,-2.337849140E-2,-5.924415588E-2
1.051603510E1,9.132236242E-3,4.746317863E-3,-1.142597198E-1
1.053654151E1,6.094349921E-2,6.160569191E-2,-2.101964951E-1
1.055584625E1,-8.659169078E-3,8.053004742E-2,-8.084678650E-2
1.056613265E1,-1.340803504E-2,7.459533215E-2,-8.428287506E-2
1.058761609E1,7.467329502E-3,4.471516609E-2,-1.633663177E-1
1.060575734E1,-1.579478383E-2,-1.323544979E-2,-8.003711700E-2
1.062575484E1,-1.400746405E-2,-2.877807617E-2,-1.108245850E-1
1.064571182E1,-2.608959377E-2,-2.068507671E-2,-1.671457291E-1
1.065690244E1,-1.547802240E-2,-5.553245544E-3,-1.401996613E-1
1.066933937E1,6.089210510E-4,-8.899807930E-3,-1.598396301E-1
1.068664948E1,9.832099080E-3,1.655948162E-2,-1.471328735E-1
1.070573677E1,2.025961876E-2,1.767396927E-2,-1.275939941E-1
1.071574890E1,1.747572422E-2,4.060888290E-2,-1.554231644E-1
1.073731958E1,1.856324077E-2,9.317135811E-2,-8.290386200E-2
1.075584698E1,1.284570992E-2,5.867826939E-2,-1.393032074E-1
1.076614635E1,1.065541804E-2,5.141317844E-2,-2.928552628E-1
1.078574234E1,-2.035444975E-2,1.726222038E-2,-3.835105896E-2
1.079580588E1,-6.240889430E-3,1.019763947E-2,-2.894783020E-2
1.080586479E1,2.367281914E-2,1.006221771E-2,-1.394395828E-1
1.081596380E1,1.578457654E-2,3.888225555E-2,-2.093658447E-1
1.083592281E1,-2.884127200E-3,6.779503822E-2,-1.467361450E-1
1.085571359E1,-1.452779025E-2,6.911134720E-2,-1.028680801E-1
1.086648161E1,-8.078880608E-3,5.444526672E-2,-1.305770874E-1
1.088593927E1,-1.582469791E-2,1.516330242E-2,-1.619672775E-1
1.090572927E1,3.966838121E-3,-1.600992680E-2,-1.286077499E-1
1.091676744E1,2.158863842E-2,-3.101766109E-2,-1.370697021E-1
1.093594198E1,1.003952324E-2,-2.001047134E-2,-1.111688614E-1
1.095584677E1,-2.527897060E-2,1.690340042E-2,-1.776790619E-1
1.096598593E1,-3.446105123E-2,8.162498474E-3,-1.660928726E-1
1.098593041E1,7.710069418E-3,1.775181293E-2,-1.693086624E-1
1.100591198E1,6.199412048E-3,3.055250645E-2,-1.785488129E-1
1.102586427E1,-2.133473754E-3,4.488062859E-2,-1.456766129E-1
1.103691781E1,1.008855551E-2,4.297435284E-2,-1.281261444E-1
1.105657760E1,-8.555188775E-3,4.582750797E-2,-1.375389099E-1
1.107587296E1,-1.224966347E-2,5.468297005E-2,-1.411170959E-1
1.108589989E1,-1.610054821E-2,5.150747299E-2,-1.632366180E-1
1.110574823E1,-7.115058601E-3,5.842721462E-2,-1.902246475E-1
1.111589172E1,-7.298663259E-3,5.022597313E-2,-1.731538773E-1
1.113573948E1,-2.106741071E-3,4.792666435E-2,-1.346683502E-1
1.114584265E1,-3.784999251E-3,6.075632572E-2,-1.077585220E-1
1.115620901E1,1.379165053E-2,4.791951180E-2,-6.175613403E-2
1.117572692E1,-1.588572562E-2,5.736923218E-2,-1.090583801E-1
1.118590687E1,-1.266628504E-2,4.614412785E-2,-1.088218689E-1
1.120627672E1,2.560380846E-2,5.016934872E-2,-7.478904724E-2
1.122594552E1,-8.718647063E-3,2.123618126E-2,-8.389377594E-2
1.124598000E1,-1.083962619E-3,8.650183678E-3,-2.785844803E-1
1.126577588E1,3.970748186E-2,2.178633213E-2,-3.688812256E-2
1.127582494E1,5.766989291E-2,1.985919476E-2,-1.703920364E-1
1.128590724E1,4.886630177E-2,1.004827023E-2,-2.095098495E-1
1.129595958E1,1.944596320E-2,-1.770114899E-2,-1.712112427E-1
1.131578067E1,-3.965395689E-2,-2.943372726E-2,-2.754402161E-1
1.132593510E1,-3.004021198E-2,-5.845189095E-3,-2.364988327E-1
1.133596802E1,-2.010864019E-2,6.887435913E-3,-6.802749634E-2
1.134628114E1,1.439022273E-2,2.705287933E-2,-3.121757507E-2
1.136574500E1,3.949076682E-2,8.067464828E-2,-1.531248093E-1
1.137575432E1,3.142747283E-2,9.553194046E-2,-1.486959457E-1
1.139574047E1,-2.979420125E-3,1.095883846E-1,-8.676147461E-2
1.141584307E1,-3.626876324E-2,5.892980099E-2,-1.192989349E-1
1.142612724E1,-3.835648298E-2,3.872275352E-2,-1.038684845E-1
1.144690948E1,-1.730280370E-2,5.421519279E-3,-8.284187317E-2
1.146590151E1,-1.934444159E-2,-7.807374001E-3,-1.125183105E-1
1.147614062E1,-3.229478002E-2,2.703666687E-3,-1.023035049E-1
1.148928880E1,-3.375217319E-2,-2.237796783E-3,-1.028442383E-1
1.150589010E1,-5.118325353E-3,-4.068374634E-3,-1.215200424E-1
1.152615927E1,4.120670259E-3,-4.096031189E-4,-1.432771683E-1
1.153736229E1,1.007606089E-2,6.270527840E-3,-1.736345291E-1
1.155591583E1,1.087108254E-2,4.388153553E-2,-2.329854965E-1
1.157574989E1,1.307012886E-2,6.797176600E-2,8.614826202E-2
1.159572255E1,1.420085132E-2,7.446056604E-2,-2.832584381E-1
1.160613276E1,1.650200039E-2,7.157462835E-2,-3.447637558E-1
1.162591276E1,1.716181636E-2,3.574246168E-2,-1.106624603E-1
1.164573322E1,-1.456574351E-2,6.019669771E-2,-2.097806931E-1
1.166640552E1,-1.634810865E-2,9.683084488E-2,-1.219902039E-1
1.168600765E1,4.148468375E-3,1.004090905E-1,-9.983634949E-2
1.170593672E1,6.868205965E-3,7.976067066E-2,-1.470203400E-1
1.171635010E1,-9.620636702E-4,4.169619083E-2,-1.220893860E-1
1.173573286E1,-2.047400177E-2,-8.690357208E-5,-1.404933929E-1
1.174573885E1,-2.067684382E-2,-1.128810644E-2,-1.551342010E-1
1.175585145E1,-1.374158263E-2,-1.066398621E-2,-1.314802170E-1
1.177586036E1,-1.152282953E-2,-2.207815647E-3,-1.188869476E-1
1.178671140E1,-2.192936093E-2,7.480204105E-3,-1.407756805E-1
1.179820963E1,-2.195920050E-2,1.562374830E-2,-1.351699829E-1
1.181597239E1,-4.004649818E-3,1.233726740E-2,-1.383676529E-1
1.183593244E1,-6.698094308E-3,1.434242725E-2,-1.965656281E-1
1.185591645E1,-2.563441172E-2,2.919453382E-2,-1.837034225E-1
1.187589484E1,-2.088353038E-3,4.596704245E-2,-1.601047516E-1
1.189795531E1,-7.297873497E-3,5.873864889E-2,-1.534137726E-1
1.191573796E1,-1.308766380E-2,6.963288784E-2,-1.469001770E-1
1.192594838E1,-1.121047139E-2,8.413255215E-2,-1.316623688E-1
1.193633276E1,-7.956504822E-3,7.175511122E-2,-1.272497177E-1
1.195688213E1,-6.119973958E-3,6.793427467E-2,-1.256580353E-1
1.197591786E1,5.831755698E-3,4.574745893E-2,-1.755723953E-1
1.199587020E1,5.661249161E-4,2.746516466E-2,-1.918210983E-1
1.200873692E1,-4.280246794E-3,1.011127234E-2,-1.657524109E-1
1.202591625E1,-7.869247347E-3,9.057879448E-3,-6.788825989E-2
1.204570911E1,-1.201226562E-2,3.078681231E-2,-1.095209122E-1
1.205752994E1,-3.206228465E-2,5.496644974E-2,-2.176694870E-1
1.207586364E1,-2.179465815E-2,5.386948586E-2,-2.087497711E-1
1.208612588E1,1.151069999E-3,5.752336979E-2,-1.550960541E-1
1.210575567E1,-3.379572183E-3,3.280913830E-2,-1.410236359E-1
1.212589276E1,-7.485408336E-3,3.544408083E-2,-2.694168091E-1
1.214582760E1,3.056791052E-2,4.161006212E-2,-3.838825226E-2
1.215597640E1,3.756488487E-2,1.625293493E-2,-1.030492783E-1
1.217573338E1,-1.376977190E-2,-4.167419672E-2,-2.318706512E-1
1.218576468E1,-1.582055166E-2,-4.569894075E-2,-2.800836563E-1
1.219587177E1,-5.409879982E-2,-4.213279486E-2,-3.233776093E-1
1.220751224E1,-3.274992108E-2,-1.184540987E-2,-2.706737518E-1
1.222592135E1,1.146365702E-2,3.006905317E-2,1.822566986E-2
1.224737765E1,-6.463080645E-4,8.168524504E-2,-1.109638214E-1
1.226656198E1,-1.859023608E-2,1.271131635E-1,-9.803009033E-2
1.228571343E1,-3.116793185E-2,1.156197786E-1,-8.952903748E-2
1.229588547E1,-3.337023780E-2,9.303361177E-2,-1.277341843E-1
1.231585510E1,-3.374968842E-2,4.543560743E-2,-5.330371857E-2
1.233598140E1,-3.171361610E-2,-2.104401588E-3,-7.842350006E-2
1.235627057E1,-5.529803783E-2,-1.875102520E-2,-9.429073334E-2
1.237572057E1,-4.210858047E-2,-1.022815704E-2,-1.006746292E-1
1.238635963E1,-3.656817973E-2,-2.257263660E-2,-1.033039093E-1
1.239693265E1,-1.936624013E-2,-1.468813419E-2,-8.918190002E-2
1.241588567E1,6.205994170E-3,-1.396417618E-3,-9.805202484E-2
1.242594588E1,8.640206419E-3,9.310066700E-3,-9.705734253E-2
1.243613734E1,1.944385841E-2,2.368563414E-2,-1.307744980E-1
1.245599828E1,1.766416803E-2,6.296390295E-2,1.430473328E-1
1.247599927E1,6.517275237E-3,5.008029938E-2,-1.566944122E-1
1.249572250E1,1.275112387E-2,4.663872719E-2,-2.231073380E-1
1.250572755E1,1.695469767E-2,4.365950823E-2,-5.436038971E-2
1.251586630E1,2.419774048E-2,2.689182758E-2,-4.081726074E-3
1.252590713E1,1.482798532E-2,1.745879650E-2,-8.796119690E-2
1.253697994E1,-2.346387506E-2,3.751230240E-2,-7.620620728E-2
1.255614630E1,-2.604269609E-2,8.539700508E-2,1.221656799E-3
1.257597734E1,2.104903571E-3,8.594602346E-2,-3.751850128E-2
1.259589416E1,1.206864696E-2,5.878674984E-2,1.470947266E-2
1.261571880E1,-1.098175440E-2,1.207888126E-2,-7.554626465E-2
1.262573598E1,-1.902354509E-2,3.767609596E-4,-1.057338715E-1
1.263574177E1,-2.756037377E-2,-1.185154915E-2,-7.601261139E-2
1.264574635E1,-2.144048177E-2,-1.727539301E-2,-1.749706268E-2
1.265579187E1,-2.468466014E-2,-1.536399126E-2,-3.318881989E-2
1.266581380E1,-1.787082478E-2,-3.096222878E-3,-7.405090332E-2
1.268581828E1,-3.186450154E-2,2.660810947E-3,-8.281040192E-2
1.269593187E1,-2.952119894E-2,6.178021431E-3,-8.658790588E-2
1.271571557E1,-1.853498258E-2,1.395189762E-2,-1.012649536E-1
1.272575281E1,-2.550529316E-2,1.314282417E-2,-1.073989868E-1
1.273606677E1,-2.299572714E-2,1.715159416E-2,-1.003627777E-1
1.275594593E1,-2.604615130E-2,2.929866314E-2,-7.308197021E-2
1.277672229E1,-1.475218125E-2,3.193491697E-2,-1.045427322E-1
1.279571802E1,-8.197966963E-3,4.147517681E-2,-7.257461548E-2
1.280576651E1,-1.577943750E-2,3.561985493E-2,-7.034492493E-2
1.281659182E1,-1.263144240E-2,4.406529665E-2,-7.410621643E-2
1.283574192E1,-6.178850308E-3,4.992991686E-2,-9.600925446E-2
1.284586713E1,-5.370620638E-3,4.034036398E-2,-9.139347076E-2
1.286598364E1,2.088595182E-3,3.596425056E-2,-7.374954224E-2
1.287625119E1,1.231901906E-2,3.011697531E-2,-6.672763824E-2
1.289587474E1,-1.043343917E-2,2.363896370E-2,-9.224224091E-2
1.291585526E1,-5.372203887E-3,1.657217741E-2,-8.906459808E-2
1.292804510E1,-1.537482440E-2,2.323597670E-2,-1.060266495E-1
1.294574640E1,-1.016895473E-2,2.474939823E-2,-1.064195633E-1
1.295646109E1,9.883372113E-3,3.403502703E-2,-1.066045761E-1
1.297724411E1,6.880827248E-3,3.966468573E-2,-1.249113083E-1
1.299586161E1,7.165972143E-3,2.664053440E-2,-1.419849396E-1
1.301573374E1,9.995903820E-3,1.402735710E-2,-1.542387009E-1
1.302594270E1,-3.120347857E-3,1.457834244E-2,-1.651325226E-1
1.304638948E1,1.889254898E-3,1.176655293E-2,-1.581296921E-1
1.306591812E1,8.748482913E-3,-6.566643715E-4,-1.008577347E-1
1.308577385E1,-9.800784290E-3,1.341134310E-2,-8.085250854E-2
1.309589369E1,-7.377594709E-3,2.039450407E-2,-1.110334396E-1
1.310607406E1,-2.370594442E-2,2.010273933E-2,-1.543846130E-1
1.312590760E1,-2.340813726E-2,3.705829382E-2,-1.534833908E-1
1.314573208E1,1.827258617E-3,4.465752840E-2,-7.489776611E-2
1.315646255E1,5.228549242E-3,3.721737862E-2,-4.872894287E-2
1.317575026E1,-1.947448775E-2,5.184811354E-2,-4.118938446E-1
1.319571968E1,2.955218032E-2,4.259651899E-2,-3.003978729E-2
1.320600640E1,3.146527708E-2,2.019298077E-2,1.808385849E-1
1.322658974E1,-6.066659838E-2,-3.148216009E-2,-4.949874878E-1
1.324577848E1,-5.005177110E-2,-4.297554493E-3,-1.969518661E-1
1.325587786E1,-1.281861588E-2,6.814301014E-3,-4.108524323E-2
1.326601885E1,2.684663795E-2,1.799786091E-2,-9.780883789E-3
1.328576020E1,2.508307807E-2,4.578256607E-2,-1.631364822E-1
1.329589817E1,-4.565905780E-3,7.845127583E-2,-1.729183197E-1
1.330802838E1,-1.229284704E-2,9.740686417E-2,-1.060466766E-1
1.332123291E1,-1.026719809E-3,1.090452671E-1,-9.425258636E-2
1.333577578E1,1.967735589E-4,9.078705311E-2,-1.553926468E-1
1.334697046E1,5.620162934E-3,5.820620060E-2,-2.129268646E-1
1.336590781E1,3.647681326E-3,3.278362751E-2,-1.471014023E-1
1.337614635E1,-3.036376089E-3,8.356511593E-3,-1.207170486E-1
1.339582974E1,-4.913885146E-3,-4.179883003E-2,-1.470432281E-1
1.340587052E1,-2.724460140E-2,-4.465717077E-2,-1.554498672E-1
1.342598562E1,-3.665477410E-2,-3.740352392E-2,-1.555118561E-1
1.344588557E1,-8.260492235E-3,-3.279399872E-2,-1.711549759E-1
1.345621630E1,2.422234416E-2,-5.058228970E-3,-1.532583237E-1
1.347653375E1,2.999016270E-2,2.601367235E-2,-1.869306564E-1
1.349572385E1,7.203653455E-3,3.426903486E-2,-2.807617188E-3
1.350577437E1,-2.135820687E-4,4.933053255E-2,3.180313110E-2
1.351618890E1,-7.571559399E-3,3.904783726E-2,-2.102031708E-1
1.353582927E1,2.830212563E-2,3.287839890E-2,-3.182868958E-1
1.355579218E1,4.381164908E-3,2.850323915E-2,-1.793556213E-1
1.356586895E1,1.239562035E-2,9.880125523E-3,-1.649427414E-1
1.357591505E1,-2.856135368E-3,2.165830135E-2,-1.757173538E-1
1.359576640E1,-1.702364534E-2,2.949422598E-2,-1.255426407E-1
1.360634390E1,-6.149455905E-3,4.647082090E-2,-9.568309784E-2
1.362798015E1,2.004357800E-2,7.643502951E-2,-8.626651764E-2
1.364104083E1,2.094401419E-2,6.379097700E-2,-5.295085907E-2
1.365579197E1,3.611996770E-3,3.714782000E-2,-1.464967728E-1
1.366593656E1,-8.338019252E-4,1.486575603E-2,-2.364711761E-1
1.367605333E1,1.413656399E-2,8.265912533E-3,-1.479978561E-1
1.369614166E1,-2.487801015E-3,2.287447453E-3,-1.361732483E-1
1.370653531E1,1.297861338E-3,1.459324360E-2,-1.901617050E-1
1.372573140E1,-6.377197802E-3,6.273806095E-3,-2.023963928E-1
1.373586755E1,1.820921898E-3,2.221405506E-3,-1.893167496E-1
1.374591531E1,-8.079558611E-4,-3.748059273E-3,-1.857872009E-1
1.376588750E1,-3.124669194E-3,-6.415605545E-3,-2.002277374E-1
1.377717135E1,-1.010451466E-2,9.834766388E-6,-2.098464966E-1
1.379596364E1,-1.200807840E-2,2.460420132E-3,-1.787843704E-1
1.381583380E1,-1.639321446E-3,2.045059204E-2,-1.872253418E-1
1.382587156E1,5.870223045E-3,1.975029707E-2,-1.776857376E-1
1.383617260E1,-1.107528806E-3,2.144628763E-2,-1.681480408E-1
1.385575536E1,-1.016850770E-2,2.272289991E-2,-1.598272324E-1
1.386584281E1,-9.955793619E-3,2.309423685E-2,-1.610698700E-1
1.387594067E1,-1.340068877E-3,1.743805408E-2,-1.647090912E-1
1.388663817E1,1.329290867E-2,4.156881571E-2,-1.563844681E-1
1.389815494E1,1.482162252E-2,3.329402208E-2,-1.588382721E-1
1.391576322E1,1.079237461E-2,3.356581926E-2,-1.613464355E-1
1.393574604E1,8.762329817E-3,2.638268471E-2,-1.590175629E-1
1.394584072E1,2.723067999E-3,2.385151386E-2,-1.674051285E-1
1.396645343E1,5.008503795E-3,2.832973003E-2,-1.686210632E-1
1.398573750E1,1.321606338E-3,2.205675840E-2,-1.710319519E-1
1.399609854E1,6.065495312E-3,3.028035164E-2,-1.734352112E-1
1.401575177E1,4.780568182E-3,3.349518776E-2,-1.650772095E-1
1.402588406E1,-2.431079745E-3,3.448086977E-2,-1.698770523E-1
1.403589724E1,2.330929041E-3,2.708643675E-2,-1.627063751E-1
1.405587984E1,9.462788701E-3,2.428489923E-2,-1.591396332E-1
1.406703104E1,8.225679398E-3,1.453119516E-2,-1.723165512E-1
1.408593635E1,-5.290389061E-3,1.354682446E-2,-2.238407135E-1
1.409681625E1,-5.019903183E-4,1.234972477E-2,-2.022933960E-1
1.411581427E1,1.892209053E-3,1.474392414E-2,-1.376495361E-1
1.413589458E1,-6.487496197E-3,3.150337934E-2,-1.603946686E-1
1.414590239E1,-1.245016605E-2,4.214942455E-2,-1.963138580E-1
1.416589781E1,-2.064432204E-2,4.656589031E-2,-1.987285614E-1
1.417676333E1,-1.095239818E-2,5.348736048E-2,-1.532516479E-1
1.419599494E1,8.389964700E-3,4.091149569E-2,-8.864021301E-2
1.421573916E1,-2.636876702E-2,4.985141754E-2,-3.808355331E-1
1.422941750E1,-1.702901721E-2,6.066340208E-2,-2.898378372E-1
1.424612666E1,5.880447477E-2,3.317010403E-2,1.174116135E-1
1.426572401E1,6.575793028E-3,-2.050489187E-2,-3.699750900E-1
1.427668177E1,-5.119619519E-2,-1.842325926E-2,-5.114707947E-1
1.429647598E1,-4.681877047E-2,-9.358525276E-4,-1.665525436E-1
1.431589552E1,3.261607140E-2,1.051753759E-2,-4.155158997E-2
1.433584182E1,2.505702525E-2,3.507906199E-2,-2.067871094E-1
1.434594807E1,-9.324856102E-3,6.506693363E-2,-1.876449585E-1
1.436576197E1,-6.541773677E-3,1.068309844E-1,-9.894466400E-2
1.438591104E1,-3.662705421E-3,7.825434208E-2,-2.198228836E-1
1.439607000E1,4.689715803E-3,6.550943851E-2,-2.150020599E-1
1.441596307E1,-5.226507783E-4,1.640754938E-2,-1.274137497E-1
1.443572974E1,-1.675719768E-2,-2.950185537E-2,-1.152658463E-1
1.444592677E1,-2.889446169E-2,-4.616457224E-2,-1.451883316E-1
1.446592208E1,-5.260049552E-2,-5.282330513E-2,-1.728191376E-1
1.448590624E1,-2.513180673E-2,-1.909273863E-2,-1.633596420E-1
1.449673510E1,2.722725272E-3,-5.927503109E-3,-1.358919144E-1
1.451573421E1,1.878836751E-2,2.092969418E-2,-1.312751770E-1
1.452588296E1,1.676546782E-2,3.793507814E-2,-1.529407501E-1
1.454589328E1,4.798695445E-3,5.019366741E-2,-1.316375732E-1
1.455602005E1,6.713196635E-4,3.577303886E-2,4.546833038E-2
1.457591265E1,-1.194545627E-2,3.760445118E-2,-3.438539505E-1
1.459696609E1,6.088785827E-3,2.649557590E-2,-1.043367386E-1
1.461573359E1,-1.319490373E-3,2.156794071E-2,-1.844644547E-1
1.462574010E1,-2.223587781E-2,2.991372347E-2,-2.048778534E-1
1.463861338E1,-3.437173367E-2,5.292463303E-2,-1.366968155E-1
1.465572473E1,3.629073501E-3,8.000865579E-2,-1.044120789E-1
1.466592932E1,1.428422332E-2,8.841487765E-2,-1.295614243E-1
1.467606598E1,2.625072375E-2,8.105102181E-2,-9.247207642E-2
1.469595630E1,2.251837030E-2,4.069608450E-2,-9.619712830E-2
1.471575572E1,-4.545822740E-4,1.557826996E-3,-2.532796860E-1
1.472586348E1,3.738179803E-4,6.341874599E-3,-1.911001205E-1
1.473586500E1,1.476630569E-4,-5.663394928E-3,-1.144886017E-1
1.474726958E1,-5.701184273E-5,-5.405247211E-3,-1.013078690E-1
1.476593192E1,-9.049870074E-3,-6.970882416E-3,-2.139167786E-1
1.477861072E1,-1.026248932E-2,-9.400129318E-3,-1.744699478E-1
1.479571104E1,-7.136568427E-3,-8.537948132E-3,-1.720781326E-1
1.480580687E1,-4.151575267E-3,-1.456999779E-2,-1.816520691E-1
1.482583276E1,-2.013157308E-2,-5.058944225E-3,-1.816492081E-1
1.483595447E1,-2.333799750E-2,1.187932491E-2,-1.493148804E-1
1.484797067E1,-8.582405746E-3,1.441943645E-2,-1.505002975E-1
1.486960932E1,-4.751645029E-3,2.865797281E-2,-1.720533371E-1
1.488572484E1,-1.432845742E-2,2.506667376E-2,-1.469144821E-1
1.489590338E1,-1.062430441E-2,2.142363787E-2,-1.552963257E-1
1.491573588E1,-5.601994693E-3,3.558397293E-2,-1.505174637E-1
1.492575947E1,4.064433277E-3,3.900861740E-2,-1.553134918E-1
1.493640401E1,6.523311138E-3,3.641289473E-2,-1.553239822E-1
1.495572994E1,5.369685590E-3,5.025500059E-2,-1.613368988E-1
1.496574442E1,4.178769886E-3,4.395610094E-2,-1.445941925E-1
1.497612510E1,-6.000399590E-4,4.600667953E-2,-1.637659073E-1
1.499741661E1,-1.129192114E-2,2.504259348E-2,-1.649961472E-1
1.501604489E1,-1.234778762E-2,2.097511292E-2,-1.554441452E-1
1.502819838E1,-7.476411760E-3,1.717609167E-2,-1.578483582E-1
1.504610156E1,6.947994232E-3,3.131699562E-2,-1.758165359E-1
1.506576177E1,-6.152704358E-3,2.374589443E-2,-2.033710480E-1
1.507611062E1,-4.908397794E-3,2.236580849E-2,-2.081680298E-1
1.509587645E1,-2.476222813E-3,5.471348763E-3,-1.614885330E-1
1.510664223E1,4.706382751E-3,-5.302608013E-3,-1.495170593E-1
1.512626375E1,7.100582123E-3,-4.105508327E-3,-1.363496780E-1
1.514578317E1,-3.231529146E-2,-6.442129612E-3,-2.189445496E-1
1.516604062E1,-3.079901636E-2,4.476547241E-3,-1.746416092E-1
1.518799552E1,5.411393940E-3,3.340423107E-3,-7.048797607E-2
1.520588755E1,-1.771211624E-3,9.325981140E-3,-3.051195145E-1
1.521595400E1,-1.482093334E-2,3.088212013E-2,-4.044771194E-1
1.523574848E1,3.710246086E-2,2.130973339E-2,9.408283234E-2
1.524590036E1,5.470142141E-2,9.928166866E-3,8.360099792E-2
1.526590078E1,-2.011455595E-2,-1.556688547E-2,-4.729185104E-1
1.527609578E1,-6.920425594E-2,-2.554112673E-2,-2.667255402E-1
1.529591333E1,7.686406374E-3,-9.640216827E-3,-3.347015381E-2
1.530596781E1,4.412650689E-2,1.938641071E-3,-8.096218109E-2
1.532574182E1,1.690938696E-2,3.860831261E-2,-1.799383163E-1
1.533585984E1,-1.653106511E-2,6.119084358E-2,-1.486272812E-1
1.534608177E1,-2.638616413E-2,8.296054602E-2,-9.806823730E-2
1.536630869E1,-1.395486295E-3,6.913954020E-2,-1.237249374E-1
1.537941843E1,-2.385370433E-3,4.186737537E-2,-1.890287399E-1
1.539575890E1,-5.397811532E-3,-9.719312191E-3,-2.136440277E-1
1.540584218E1,-5.831472576E-3,-2.762734890E-2,-1.828832626E-1
1.542580302E1,-1.383578032E-2,-7.429021597E-2,-8.970928192E-2
1.543589208E1,-2.262397856E-2,-7.430261374E-2,-1.060028076E-1
1.544592895E1,-4.031113535E-2,-9.258246422E-2,-1.271753311E-1
1.546571848E1,-5.010768399E-2,-6.301969290E-2,-1.624641418E-1
1.547614739E1,-2.970585600E-2,-4.695570469E-2,-1.621828079E-1
1.549940432E1,1.748922095E-2,-5.596280098E-3,-1.317996979E-1
1.551573125E1,2.038883418E-2,1.262331009E-2,-2.141351700E-1
1.552613145E1,1.592109725E-2,3.206646442E-2,-2.437114716E-1
1.554997697E1,1.586833596E-2,1.671892405E-2,3.692722321E-2
1.556617640E1,-1.643870026E-3,1.401245594E-3,-3.973598480E-1
1.558654203E1,7.550943643E-3,9.000897408E-4,-1.774196625E-1
1.560585411E1,1.983425766E-2,1.076489687E-2,-1.274356842E-1
1.562579859E1,-9.757924825E-3,1.152253151E-2,-1.328439713E-1
1.563588671E1,-2.260237560E-2,3.398996592E-2,-1.014823914E-1
1.565576546E1,1.575917006E-3,5.979180336E-2,-1.189708710E-1
1.567574015E1,1.894834638E-2,4.228001833E-2,-8.379364014E-2
1.569579458E1,4.461884499E-3,-1.508790255E-2,-1.312389374E-1
1.570753416E1,3.813263029E-3,-4.476672411E-2,-2.172393799E-1
1.572584749E1,-1.079283655E-3,-3.462904692E-2,-1.183042526E-1
1.574570926E1,1.160359010E-3,-3.916412592E-2,-1.545553207E-1
1.575571463E1,-1.508560032E-3,-3.152763844E-2,-2.067174911E-1
1.576572208E1,-1.576693915E-2,-4.333525896E-2,-1.971273422E-1
1.577673838E1,-2.830784023E-2,-4.824572802E-2,-1.640462875E-1
1.579588703E1,-3.058610111E-2,-3.875470161E-2,-1.546001434E-1
1.581590520E1,-2.381055057E-2,-1.813614368E-2,-1.763305664E-1
1.583592994E1,-9.139183909E-3,-1.794904470E-2,-1.321105957E-1
1.585589645E1,6.219683215E-3,-7.609963417E-3,-1.214447021E-1
1.587583864E1,-1.863770187E-3,-5.353331566E-3,-1.192207336E-1
1.588590322E1,-5.234660581E-3,-1.024371386E-2,-1.175069809E-1
1.590571968E1,-4.835762084E-4,-8.211553097E-3,-9.535503387E-2
1.591596624E1,1.562350802E-2,3.178656101E-3,-1.135978699E-1
1.593595364E1,2.996254899E-2,1.462221146E-2,-1.580524445E-1
1.595590546E1,-7.601140998E-3,4.720091820E-3,-1.493568420E-1
1.597589999E1,7.524418179E-4,-1.732462645E-2,-1.428165436E-1
1.599573020E1,-6.905356888E-3,-2.188014984E-2,-1.291027069E-1
1.600589963E1,-6.594553590E-3,-2.157217264E-2,-1.079044342E-1
1.601702848E1,-1.383197960E-3,-2.515822649E-2,-8.301830292E-2
1.603578151E1,1.081319712E-2,-4.111522436E-2,-1.473445892E-1
1.604582453E1,4.124647006E-3,-2.913814783E-2,-1.633777618E-1
1.605658354E1,2.736557275E-3,-3.117066622E-2,-1.266975403E-1
1.607576453E1,2.631867304E-3,-2.780508995E-2,-2.575874329E-2
1.608578755E1,1.562854648E-2,-4.279577732E-2,-6.697463989E-2
1.610571255E1,1.723225042E-2,-9.957671165E-3,-3.352622986E-1
1.611654432E1,2.015757747E-2,-1.152765751E-2,-3.334741592E-1
1.613576911E1,4.554913938E-2,-4.974293709E-2,-3.838825226E-2
1.614597963E1,3.836569190E-2,-7.883310318E-2,-2.339658737E-1
1.615626468E1,5.102463067E-3,-7.486915588E-2,-2.932443619E-1
1.617573057E1,-6.786849350E-2,-6.620442867E-2,-2.054233551E-1
1.618575494E1,-1.520985551E-2,-2.699851990E-2,2.186203003E-2
1.619588973E1,1.451778784E-2,4.895210266E-3,-2.992725372E-2
1.621598817E1,4.144609720E-2,5.951941013E-2,-2.513093948E-1
1.623582541E1,-8.291166276E-3,6.796598434E-2,-1.296901703E-1
1.624609505E1,-1.910801604E-2,5.106258392E-2,-6.727027893E-2
1.626584702E1,-1.244067773E-2,1.638078690E-2,-1.171283722E-1
1.628587947E1,-1.483717933E-2,-2.416443825E-2,-1.157312393E-1
1.629588244E1,-1.900981739E-2,-4.074501991E-2,-8.537864685E-2
1.631584968E1,-6.357977167E-3,-7.192051411E-2,-3.123950958E-2
1.632590906E1,-1.373565290E-2,-8.287322521E-2,-7.241725922E-2
1.634575666E1,-2.380390465E-2,-9.248495102E-2,-1.228551865E-1
1.635590781E1,-2.558164671E-2,-8.113312721E-2,-1.283197403E-1
1.637583687E1,8.597819135E-3,-6.910121441E-2,-1.594285965E-1
1.638589906E1,2.508437261E-2,-5.415034294E-2,-1.467752457E-1
1.640590979E1,2.527791820E-2,-4.652583599E-2,-2.313747406E-1
1.642581937E1,5.739774555E-3,-1.599514484E-2,8.165454865E-2
1.644578031E1,1.999952644E-2,-2.943730354E-2,-2.627706528E-1
1.646857953E1,2.035312355E-3,-1.621508598E-2,-1.358079910E-1
1.647911317E1,9.590119123E-3,-8.931040764E-3,-1.053209305E-1
1.649159288E1,2.621639520E-2,1.976370811E-3,-1.687498093E-1
1.650582223E1,2.795113809E-2,1.578700542E-2,-1.116046906E-1
1.651591984E1,1.284238696E-2,2.801883221E-2,-3.637981415E-2
1.653572687E1,2.270668373E-2,2.441966534E-2,-6.770610809E-2
1.654735609E1,3.016044572E-2,3.373241425E-2,-1.535949707E-1
1.656571906E1,1.574295759E-2,1.012694836E-2,-5.232429504E-2
1.657582291E1,1.786129549E-2,-1.155817509E-2,-5.783081055E-2
1.659677822E1,2.650617808E-2,-2.986919880E-2,-1.659717560E-1
1.661576609E1,9.405549616E-3,-3.591489792E-2,-1.061391830E-1
1.663608354E1,-1.865419000E-2,-4.366183281E-2,-1.862745285E-1
1.665583364E1,-2.534473315E-2,-5.663156509E-2,-1.715679169E-1
1.666863703E1,-2.163158730E-2,-7.648706436E-2,-1.475563049E-1
1.668583588E1,-1.494527236E-2,-9.081757069E-2,-1.788520813E-1
1.670583906E1,-2.201225981E-2,-5.967938900E-2,-1.460046768E-1
1.671586343E1,-1.936346292E-2,-5.090630054E-2,-1.346569061E-1
1.672590458E1,-6.145931780E-3,-3.961133957E-2,-1.556081772E-1
1.673591666E1,4.922740161E-3,-2.733492851E-2,-1.670141220E-1
1.674603411E1,6.617359817E-3,-3.057622910E-2,-1.843986511E-1
1.676827458E1,1.295992732E-2,-1.501333714E-2,-1.650419235E-1
1.678572291E1,-4.083476961E-3,-1.138377190E-2,-1.412258148E-1
1.679605328E1,-5.762442946E-3,-4.904866219E-3,-1.561794281E-1
1.681577437E1,2.941389382E-2,2.283942699E-2,-1.419115067E-1
1.682582484E1,2.764538676E-2,2.288889885E-2,-1.533412933E-1
1.683684666E1,2.233111858E-2,2.426826954E-2,-1.683425903E-1
1.685591854E1,-8.158281446E-3,1.541852951E-3,-1.104717255E-1
1.687582359E1,-5.276016891E-3,-2.620267868E-2,-2.869033813E-2
1.688601374E1,-1.616053283E-3,-2.374899387E-2,-3.293132782E-2
1.690591130E1,9.300164878E-3,-2.082419395E-2,-2.561588287E-1
1.691658025E1,3.144054115E-2,-1.575779915E-2,-2.774782181E-1
1.693660275E1,7.335636765E-2,-3.707754612E-2,-2.693147659E-1
1.695573921E1,2.983458340E-2,-5.970382690E-2,-1.748838425E-1
1.697828286E1,-3.747627139E-2,-6.685125828E-2,-2.176160812E-1
1.699574989E1,-1.498644799E-2,-6.051242352E-2,-7.324600220E-2
1.700653239E1,4.816293716E-3,-3.113317490E-2,-9.737682343E-2
1.702588536E1,5.003800243E-2,1.682722569E-2,-2.441854477E-1
1.703641869E1,3.117015958E-2,2.321839333E-2,-2.192687988E-1
1.705570838E1,-3.267040849E-2,2.545058727E-2,-8.120250702E-2
1.706592275E1,-2.388328314E-2,1.446974277E-2,-7.611846924E-2
1.708576979E1,-2.624604851E-2,-4.108786583E-3,-1.278009415E-1
1.710576562E1,-1.700505614E-2,-4.924559593E-2,-8.310413361E-2
1.711625202E1,-6.562024355E-4,-4.793810844E-2,-8.489227295E-2
1.713692437E1,1.371726394E-2,-5.033338070E-2,-1.032533646E-1
1.715588442E1,-1.476926357E-2,-5.547928810E-2,-1.132917404E-1
1.716591911E1,6.039112806E-3,-5.061483383E-2,-1.212587357E-1
1.718587666E1,1.747804135E-2,-5.079603195E-2,-1.336517334E-1
1.719608088E1,1.492521912E-2,-3.457236290E-2,-9.861469269E-2
1.721571697E1,1.643434167E-2,-1.467800140E-2,-1.329784393E-1
1.722648426E1,5.499549210E-3,5.901575089E-3,-3.053073883E-1
1.723692697E1,-2.908527851E-3,2.898228168E-2,-8.498477936E-2
1.725585291E1,2.233374864E-2,1.506054401E-2,-1.972427368E-1
1.726611479E1,1.039709896E-2,1.853752136E-2,-2.896099091E-1
1.728621322E1,-2.629493922E-2,-1.319289207E-3,-1.229524612E-1
1.730586828E1,1.506120712E-2,5.158066750E-3,-1.177053452E-1
1.731588515E1,8.869692683E-4,7.359385490E-3,-1.259202957E-1
1.732591510E1,2.468377352E-4,3.320217133E-3,-6.949996948E-2
1.733718031E1,2.413214743E-2,8.223652840E-3,-4.553794861E-2
1.735577078E1,2.049505711E-2,3.341436386E-3,-7.814884186E-2
1.737676604E1,-1.138262451E-3,-2.826058865E-2,-6.818580627E-2
1.739572791E1,7.948204875E-3,-4.297399521E-2,-1.230783463E-1
1.740585228E1,6.866931915E-3,-4.984462261E-2,-1.022520065E-1
1.741630265E1,-1.435771585E-3,-5.544531345E-2,-6.824207306E-2
1.743648708E1,-1.627324522E-2,-2.365088463E-2,-1.369056702E-1
1.745572036E1,-1.781421155E-2,-1.974880695E-2,-1.990585327E-1
1.746573400E1,-1.675842702E-2,-3.280055523E-2,-2.075967789E-1
1.747581838E1,-1.366689801E-3,-3.347063065E-2,-2.354040146E-1
1.748706452E1,1.266086102E-2,-4.400730133E-2,-2.105751038E-1
1.750573994E1,1.395675540E-2,-1.102066040E-2,-8.184337616E-2
1.751574020E1,-1.310782880E-2,2.322959900E-2,1.713085175E-2
1.752584411E1,-2.791002393E-3,6.487035751E-2,1.062002182E-1
1.753786234E1,-1.121739298E-2,1.530371904E-1,7.102966309E-2
1.755111611E1,-2.256318927E-3,1.464432478E-1,4.110240936E-2
1.756590380E1,3.369219601E-3,1.434808969E-1,1.899623871E-2
1.758787364E1,-1.434113085E-2,1.165503263E-1,6.332397461E-4
1.760085231E1,-5.083955452E-2,5.896854401E-2,-1.079721451E-1
1.761605453E1,-3.884029761E-2,8.280813694E-2,-2.226285934E-1
1.763580880E1,-1.321443729E-2,1.977407932E-2,-3.133783340E-1
1.764585546E1,-2.758403495E-2,-3.148317337E-3,-2.960529327E-1
1.766592145E1,-1.737358421E-2,5.563378334E-3,-4.007358551E-1
1.768577770E1,3.192904871E-3,-2.398443222E-2,-2.661199570E-1
1.770588739E1,4.753170069E-3,-5.074679852E-2,-1.495189667E-1
1.771681463E1,-4.407580942E-3,-7.516026497E-2,-2.026414871E-1
1.773587656E1,-8.640057407E-3,-8.002042770E-2,-3.296575546E-1
1.775591656E1,5.520451069E-2,-1.062823534E-1,-5.426406860E-4
1.777591062E1,-3.000413254E-2,-1.317185163E-1,-2.518844604E-1
1.778656692E1,-3.303152695E-2,-1.390345097E-1,-3.329877853E-1
1.780570833E1,-1.529772673E-2,-7.717132568E-2,-1.843900681E-1
1.781669630E1,5.381161347E-3,-2.599203587E-2,-9.608268738E-2
1.783856562E1,5.202976614E-2,5.418485403E-2,-3.040447235E-1
1.785572458E1,3.802984953E-2,1.156219840E-1,-3.035326004E-1
1.786579281E1,1.983995549E-2,1.543373466E-1,-2.279520035E-1
1.787599338E1,-6.420882419E-3,1.471004486E-1,-1.940736771E-1
1.789583703E1,-1.249489561E-2,1.529978514E-1,-1.595773697E-1
1.790588822E1,-1.649765670E-2,1.670795679E-1,-1.698846817E-1
1.791645984E1,-1.244709082E-2,1.562354565E-1,-1.743078232E-1
1.793654135E1,-3.539929166E-3,1.435996294E-1,-1.415576935E-1
1.795698275E1,3.028536215E-3,1.058512330E-1,-4.453754425E-2
1.797712661E1,-1.280859113E-3,-6.760096550E-2,-1.596984863E-1
1.799571640E1,-2.408979833E-2,-4.706525803E-2,-1.417255402E-1
1.800586354E1,5.540877581E-3,3.201019764E-2,-2.159423828E-1
1.801600796E1,1.491973922E-2,6.660008430E-2,-1.189918518E-1
1.803588593E1,2.112919465E-2,6.327450275E-2,-5.948829651E-2
1.804648036E1,4.494317621E-2,3.872632980E-2,-6.005001068E-2
1.805711885E1,2.950773574E-2,4.227280617E-3,1.296920776E-1
1.807588239E1,-6.160666794E-2,-3.418046236E-2,-3.050193787E-1
1.809689109E1,-4.000183195E-2,-9.593605995E-3,-2.853326797E-1
1.811575640E1,2.418713458E-2,-1.531481743E-3,-1.521215439E-1
1.812584932E1,4.315456375E-2,-1.012426615E-2,-2.549734116E-1
1.814584781E1,4.161813110E-2,1.779460907E-2,-1.687431335E-1
1.815584791E1,-5.626023281E-3,5.964392424E-2,-1.304407120E-1
1.817591781E1,3.174643498E-3,1.137364507E-1,-2.000923157E-1
1.819607671E1,1.703123376E-2,1.274568439E-1,-1.407842636E-1
1.821574609E1,7.932513021E-3,2.770209312E-2,-1.162834167E-1
1.822586911E1,-1.689253561E-2,-1.202046871E-2,-1.716098785E-1
1.823751036E1,2.584297210E-3,-5.333691835E-2,-1.167230606E-1
1.825569978E1,1.143697836E-2,-4.434835911E-2,-9.056186676E-2
1.826574583E1,8.728628978E-3,-2.684479952E-2,-1.290330887E-1
1.828572661E1,-1.416419633E-3,7.998943329E-5,-1.067075729E-1
1.829583666E1,9.249127470E-3,1.109439135E-2,-1.057243347E-1
1.830605895E1,5.514444783E-4,2.343332767E-2,-1.454296112E-1
1.831647364E1,-1.069470774E-2,3.860205412E-2,-1.803045273E-1
1.833588973E1,-5.060199648E-2,5.383044481E-2,-1.803379059E-1
1.835573109E1,-1.563783735E-2,7.371652126E-2,-1.491403580E-1
1.837595213E1,1.740281098E-2,5.242723227E-2,-1.850280762E-1
1.839714848E1,4.407864064E-3,2.538424730E-2,-1.719284058E-1
1.841576536E1,-1.504787244E-2,2.207916975E-2,-1.817121506E-1
1.842577843E1,-1.588437334E-2,1.858019829E-2,-2.093544006E-1
1.843583578E1,4.382990301E-5,3.895443678E-2,-2.274265289E-1
1.844585067E1,1.594685391E-2,3.399997950E-2,-2.250471115E-1
1.845755192E1,1.674683020E-2,3.262603283E-2,-1.508417130E-1
1.847636979E1,-7.501370274E-3,4.894918203E-2,-8.874607086E-2
1.849572270E1,-3.960929811E-2,9.862530231E-2,-1.310491562E-1
1.850723338E1,-7.661059499E-5,1.202043891E-1,-1.492385864E-1
1.852590791E1,7.628223300E-2,9.940475225E-2,-1.173152924E-1
1.853616619E1,6.900709867E-2,8.684384823E-2,-1.019268036E-1
1.855715869E1,2.114604041E-2,5.418884754E-2,-1.741313934E-1
1.857584895E1,-2.658687532E-2,7.488852739E-2,-1.647500992E-1
1.859572249E1,1.457353979E-1,3.851997852E-2,-7.586956024E-2
1.860886400E1,1.653971523E-1,-3.421902657E-3,-2.686080933E-1
1.862583838E1,2.388663217E-2,-1.146121025E-1,-3.595685959E-1
1.863590562E1,-6.148401648E-2,-1.406602263E-1,-3.520002365E-1
1.864625010E1,-1.151428223E-1,-1.252096891E-1,-3.012619019E-1
1.866585473E1,-1.634048522E-1,-1.137488484E-1,1.829910278E-2
1.867594072E1,-1.440226287E-1,-8.184862137E-2,6.888961792E-2
1.869588926E1,2.139631100E-2,1.116552353E-1,-6.727504730E-2
1.870768281E1,7.386231422E-2,1.599777341E-1,-5.275058746E-2
1.872602088E1,1.221304089E-1,1.790901423E-1,-7.275485992E-2
1.874580265E1,9.148227423E-2,1.476647854E-1,-1.275033951E-1
1.875745406E1,5.895537138E-2,1.311002374E-1,-1.118040085E-1
1.877574702E1,1.495099813E-2,6.492125988E-2,-1.907243729E-1
1.878605416E1,-1.318909507E-2,4.304271936E-2,-2.793416977E-1
1.880594593E1,-6.427072734E-2,-8.609473705E-3,-3.162260056E-1
1.881596973E1,-7.426419854E-2,-4.126310349E-2,-2.536468506E-1
1.883623031E1,-1.527887676E-2,-1.044629216E-1,-1.725587845E-1
1.885585093E1,-2.935859747E-2,-1.407619715E-1,-5.477809906E-2
1.887570932E1,1.089543104E-2,-1.333040595E-1,-5.988502502E-2
1.888574093E1,5.640383065E-2,-1.243838668E-1,-1.512908936E-1
1.890572489E1,5.556701496E-2,-1.013226509E-1,2.569494247E-1
1.891583223E1,6.036143377E-2,-5.629187822E-2,-2.395296097E-1
1.892591348E1,4.801255092E-2,-2.558773756E-2,-4.295454025E-1
1.893613249E1,1.527199894E-2,8.707880974E-3,-2.733640671E-1
1.895573364E1,-9.437410533E-2,4.986065626E-2,2.417087555E-2
1.896581145E1,-1.280843914E-1,9.331637621E-2,-9.704399109E-2
1.898651463E1,-8.500014246E-2,1.306302547E-1,-2.285375595E-1
1.900575213E1,-4.769217223E-2,9.000635147E-2,-1.502017975E-1
1.901583749E1,-4.896265268E-2,6.979268789E-2,-1.288614273E-1
1.902591775E1,-5.119181424E-2,6.209951639E-2,-8.472633362E-2
1.903613130E1,-5.705412477E-2,4.839843512E-2,-8.129310608E-2
1.905592406E1,-7.516395301E-3,1.970303059E-2,-6.366729736E-2
1.906598275E1,1.473452896E-2,-1.171642542E-2,-7.578182220E-2
1.908618218E1,1.687917858E-3,-7.490181923E-2,-1.010179520E-1
1.910847051E1,-3.164963424E-2,-8.376115561E-2,-5.165958405E-2
1.912577187E1,-6.177622080E-2,-7.530015707E-2,-8.723735809E-2
1.913578077E1,-7.995744795E-2,-4.558140039E-2,-1.061916351E-1
1.914590843E1,-5.134493858E-2,9.540736675E-3,-8.441829681E-2
1.915656369E1,-4.934164509E-2,3.386753798E-2,-6.380939484E-2
1.917603817E1,2.005207352E-2,3.771275282E-2,-1.016426086E-1
1.919580145E1,3.788878769E-2,3.157931566E-2,-1.023988724E-1
1.920636958E1,3.863393888E-2,4.694223404E-3,-7.588672638E-2
1.921697807E1,4.255832732E-2,-1.910388470E-2,-5.181598663E-2
1.923592791E1,3.938346356E-2,-4.981440306E-2,-5.177688599E-2
1.925616145E1,1.704904810E-2,-6.086832285E-2,-3.527641296E-2
1.927586218E1,-2.712678909E-2,-2.086949348E-2,-4.178714752E-2
1.928587400E1,-4.741963744E-2,2.214598656E-2,-4.932022095E-2
1.929590489E1,-4.595413059E-2,5.421352386E-2,-4.848766327E-2
1.930884577E1,-1.915600710E-2,1.268003583E-1,-7.520580292E-2
1.932574270E1,-2.943227999E-3,1.459199190E-1,-8.044910431E-2
1.933575484E1,5.485806614E-4,1.474547386E-1,-6.193447113E-2
1.934575484E1,-3.591261804E-3,1.562100053E-1,-1.206493378E-2
1.936571301E1,8.376921527E-3,1.402847767E-1,9.654998779E-3
1.937575765E1,-1.709664240E-2,1.326453090E-1,-4.001712799E-2
1.938657666E1,6.427008659E-3,1.285814047E-1,-2.624034882E-2
1.940593083E1,7.556526363E-2,9.345120192E-2,-1.777553558E-2
1.942584619E1,8.967447281E-2,5.663734674E-2,-1.412296295E-2
1.944588077E1,4.198335111E-2,5.633103848E-2,-2.943201065E-1
1.945588890E1,5.556876957E-2,5.317533016E-2,-1.714925766E-1
1.947728848E1,1.081545204E-1,4.077190161E-2,3.985118866E-2
1.949588004E1,6.594132632E-2,-2.269089222E-2,-2.570447922E-1
1.950633421E1,1.145279035E-2,-4.629105330E-2,-3.558750153E-1
1.951637364E1,-8.610963821E-3,-5.562061071E-2,-3.934555054E-1
1.953572702E1,-1.313838083E-2,-5.991876125E-2,-1.326456070E-1
1.954585208E1,-2.134415135E-2,-4.795414209E-2,7.513999939E-3
1.955599494E1,-3.990191966E-2,-2.902674675E-2,-2.602386475E-2
1.956745213E1,-9.492591769E-2,2.841007710E-2,-1.363534927E-1
1.958881458E1,-1.118306220E-1,8.647513390E-2,-3.742980957E-2
1.960161562E1,-9.159125388E-2,7.149535418E-2,-9.752559662E-2
1.961574635E1,-7.859294862E-2,5.122011900E-2,-1.170530319E-1
1.962591687E1,-7.597223669E-2,2.602958679E-2,-1.052742004E-1
1.964575208E1,-2.849219553E-2,7.905960083E-4,-8.650016785E-2
1.965579577E1,-1.832936704E-2,-8.030176163E-3,-9.270668030E-2
1.966590791E1,-1.316431724E-2,-1.835882664E-2,-1.037254333E-1
1.967773228E1,-1.897737756E-2,-1.811355352E-2,-9.201431274E-2
1.969622630E1,-5.571370944E-3,1.636028290E-3,-1.392068863E-1
1.971591161E1,2.798815444E-2,2.250796556E-2,-1.600666046E-1
1.972592848E1,4.291365668E-2,1.922762394E-2,-1.459522247E-1
1.974594072E1,8.005754650E-2,3.802579641E-2,-1.488304138E-1
1.976592728E1,8.850403875E-2,5.105495453E-2,-2.547340393E-1
1.977600577E1,6.758682430E-2,5.669432878E-2,-3.715991974E-2
1.979593385E1,4.605878145E-2,5.391317606E-2,-1.670141220E-1
1.981609228E1,3.043311089E-2,3.737986088E-2,-2.177858353E-1
1.983572562E1,7.089477032E-3,1.587086916E-2,-1.292705536E-1
1.985572770E1,-4.788447544E-2,4.832565784E-3,-2.348871231E-1
1.986576364E1,-5.438615754E-2,1.722902060E-2,-1.655950546E-1
1.987708546E1,-6.074656174E-2,5.046439171E-2,-1.082439423E-1
1.989592333E1,-4.016153887E-2,7.310456038E-2,-1.121120453E-1
1.991588140E1,1.592077315E-4,8.336406946E-2,-5.982685089E-2
1.992737458E1,3.977634013E-3,4.900550842E-2,-1.098155975E-2
1.994593161E1,-6.327919662E-3,7.448196411E-4,-1.899766922E-1
1.995719374E1,-5.267001688E-3,-1.165032387E-2,-2.165956497E-1
1.997718536E1,9.793238714E-3,-1.302552223E-2,-8.278465271E-2
1.999627166E1,1.397146843E-2,3.198742867E-3,-1.847448349E-1
2.001722650E1,3.186557442E-3,2.256393433E-2,-1.754760742E-1
2.002725051E1,8.313950151E-3,2.681267262E-2,-1.827716827E-1
2.004752385E1,9.326621890E-3,1.906466484E-2,-2.296524048E-1
2.006591333E1,-1.592814922E-2,2.250349522E-2,-1.879234314E-1
2.008582380E1,-8.258964866E-3,3.296375275E-2,-1.785287857E-1
2.009646416E1,-2.229822800E-2,2.763366699E-2,-1.882219315E-1
2.011699260E1,-2.883049101E-2,2.454525232E-2,-1.754198074E-1
2.013592614E1,-3.077371046E-2,4.515993595E-2,-1.420421600E-1
2.015605343E1,-2.387091517E-2,4.125708342E-2,-1.423778534E-1
2.017775083E1,-1.197039708E-2,4.707825184E-2,-1.487655640E-1
2.019586728E1,-9.887158871E-3,5.063456297E-2,-1.527452469E-1
2.021585025E1,-1.826602593E-2,3.619152308E-2,-1.602382660E-1
2.023588702E1,-1.528923586E-2,1.665139198E-2,-1.987934113E-1
2.025586598E1,-2.092989534E-2,8.003771305E-3,-1.654434204E-1
2.027573827E1,-4.631754011E-3,2.205348015E-2,-1.177339554E-1
2.028583947E1,6.544884294E-3,1.297527552E-2,-1.705245972E-1
2.030574015E1,1.365306228E-2,3.358346224E-2,-1.982574463E-1
2.032580900E1,3.496749699E-2,3.547179699E-2,-1.193437576E-1
2.033582416E1,3.586405516E-2,2.139741182E-2,-9.425735474E-2
2.035674447E1,3.034641407E-2,-1.163601875E-3,-2.944583893E-1
2.037575588E1,2.243795246E-2,-1.791477203E-3,-2.132272720E-1
2.039578734E1,4.100342840E-2,-8.772253990E-3,5.630111694E-2
2.040579046E1,1.274687797E-2,-3.993445635E-2,-1.330041885E-1
2.042847973E1,-8.181954175E-2,-4.277330637E-2,-4.713048935E-1
2.044572260E1,-4.538437352E-2,-1.531076431E-2,-1.215467453E-1
2.045591499E1,4.337854683E-3,-1.481771469E-4,1.954078674E-3
2.047588072E1,7.513726503E-2,2.894479036E-2,-7.109928131E-2
2.049572718E1,2.743472904E-2,7.696318626E-2,-2.068595886E-1
2.050603848E1,-9.834435582E-2,1.188947260E-1,-1.160230637E-1
2.051809505E1,-1.603987813E-1,1.007335186E-1,-1.149101257E-1
2.053140885E1,-1.575984359E-1,4.692876339E-2,-5.755615234E-2
2.054587890E1,-1.017759219E-1,2.734625340E-2,-6.595706940E-2
2.055647072E1,-8.224269003E-2,2.890670300E-2,-1.031608582E-1
2.056709130E1,-5.518209934E-2,4.013150930E-2,-1.751422882E-1
2.058670640E1,-5.680992454E-2,8.158785105E-2,-3.347644806E-1
2.060573978E1,-1.379715800E-1,5.949276686E-2,-2.763662338E-1
2.061591400E1,-1.403989047E-1,2.516806126E-2,-2.272806168E-1
2.062597072E1,-6.801488250E-2,1.646882296E-2,-2.092866898E-1
2.064589609E1,4.489612579E-2,5.531352758E-2,-2.344179153E-1
2.066586327E1,5.731282383E-2,8.386373520E-2,-3.063545227E-1
2.068572833E1,3.085194901E-2,2.997833490E-2,-4.189491272E-1
2.069835817E1,-6.479582191E-2,-1.073234677E-1,4.878044128E-3
2.071573916E1,-4.835205525E-2,-1.276235580E-1,-4.292392731E-2
2.073578333E1,3.212789893E-1,7.489919662E-4,-7.178306580E-2
2.075675963E1,2.989317775E-1,1.154553592E-1,-3.270616531E-1
2.077572067E1,4.061698541E-2,9.112557769E-2,-1.752233505E-1
2.078583921E1,-4.040999711E-2,4.311829805E-2,1.038208008E-1
2.079608406E1,-4.093934968E-2,-1.343733072E-2,3.386440277E-1
2.081576619E1,1.380528063E-1,-6.279730797E-2,2.118110657E-1
2.082577801E1,2.260373682E-1,-2.648937702E-2,-5.899143219E-2
2.083585166E1,2.867088914E-1,5.268520117E-2,-3.011436462E-1
2.084598010E1,2.746864259E-1,1.127765179E-1,-4.438571930E-1
2.085643874E1,1.629663110E-1,1.792753339E-1,-4.595117569E-1
2.087602421E1,-1.186522841E-2,2.116048038E-1,-2.364130020E-1
2.089621603E1,3.773786500E-2,1.156453788E-1,-1.543130875E-1
2.091740640E1,1.516536176E-1,-6.324291229E-3,-1.983308792E-1
2.093585197E1,2.071247101E-1,-1.251217723E-1,-1.420345306E-1
2.095574067E1,1.792246550E-1,-1.430996656E-1,-2.652091980E-1
2.096594989E1,8.436029404E-2,-9.450608492E-2,-3.154439926E-1
2.098596312E1,3.232441097E-2,-6.263196468E-3,-2.924346924E-1
2.100580978E1,2.353268862E-2,3.479117155E-2,-2.383279800E-1
2.101583926E1,4.890479147E-3,2.308535576E-2,-1.975364685E-1
2.103649890E1,-3.092347644E-2,-3.909271955E-2,-1.340103149E-1
2.104946603E1,-5.737503245E-2,-7.621079683E-2,-1.124601364E-1
2.106668421E1,-8.409126103E-2,-1.349642277E-1,-7.893943787E-2
2.107732327E1,-6.756492704E-2,-1.284503937E-1,-6.214618683E-2
2.109588374E1,-7.017239183E-2,-5.867511034E-2,-7.521820068E-2
2.111596228E1,-1.301441789E-1,7.799267769E-3,-1.457366943E-1
2.112802864E1,-1.936487854E-1,4.051691294E-2,-1.407814026E-1
2.114574926E1,-2.914859354E-1,6.395548582E-2,-1.034154892E-1
2.116671244E1,-3.252202868E-1,3.924447298E-2,-6.957912445E-2
2.118658145E1,-3.303015828E-1,4.996693134E-2,-4.554653168E-2
2.120588223E1,-3.468003571E-1,9.489083290E-2,-1.760778427E-1
2.122583051E1,-3.317570686E-1,1.742125154E-1,-4.550237656E-1
2.124573952E1,-2.451343536E-1,2.393813729E-1,-1.708860397E-1
2.125632176E1,-1.685777605E-1,2.312508821E-1,-4.056358337E-2
2.127638770E1,3.828555346E-3,1.701484621E-1,-2.927503586E-1
2.129725510E1,1.509385407E-1,3.770005703E-2,-1.177434921E-1
2.131581786E1,1.896392107E-1,-1.335869431E-1,8.652496338E-2
2.133584978E1,6.052798405E-2,-2.245725989E-1,-5.035839081E-1
2.135576760E1,-3.662080318E-2,-2.266125679E-1,-2.563390732E-1
2.137596114E1,3.627036884E-2,-1.552109122E-1,7.338523865E-3
2.139574416E1,1.252886504E-1,-8.467262983E-2,-1.808643341E-1
2.140658244E1,1.030226499E-1,-7.468581200E-3,-1.170635223E-1
2.142572567E1,1.451822072E-1,2.419716120E-2,4.871368408E-3
2.144573468E1,2.534134090E-1,5.585038662E-2,-1.760158539E-1
2.145583817E1,3.307539821E-1,5.465269089E-2,-1.754884720E-1
2.146588864E1,3.806933463E-1,5.064994097E-2,-1.186380386E-1
2.147616718E1,3.907257020E-1,4.115265608E-2,-5.456161499E-2
2.149574687E1,3.340788484E-1,-4.279285669E-2,-7.493209839E-2
2.150576556E1,2.700068653E-1,-8.650875092E-2,-1.152095795E-1
2.152661541E1,7.688020915E-2,-1.528306007E-1,-1.419935226E-1
2.154589280E1,-7.863458991E-2,-1.377503276E-1,-2.276945114E-1
2.156573254E1,-1.763608456E-1,-2.719581127E-3,-2.405261993E-1
2.157584697E1,-1.765119284E-1,6.834894419E-2,-2.882471085E-1
2.158610786E1,-1.386461854E-1,1.250938177E-1,-3.180170059E-1
2.160572890E1,-6.158478558E-2,1.538677216E-1,-2.206697464E-1
2.161588510E1,-3.942285478E-2,1.164024472E-1,4.172611237E-2
2.162627421E1,-5.027040839E-2,4.812115431E-2,-3.354263306E-2
2.164588603E1,-2.221493423E-2,-1.149696708E-1,-1.508178711E-1
2.166580926E1,-4.919933528E-2,-8.850681782E-2,-3.918933868E-2
2.167631437E1,-1.095365882E-1,-4.967170954E-2,1.711463928E-2
2.169587593E1,-2.455640137E-1,9.066587687E-2,-2.974224091E-2
2.170588286E1,-2.765513659E-1,1.605995893E-1,-5.143642426E-2
2.172575348E1,-2.474334538E-1,2.935050130E-1,-1.221504211E-1
2.173646447E1,-2.188773602E-1,3.182341456E-1,-1.172981262E-1
2.175585635E1,-1.064306498E-1,2.391183376E-1,-9.418106079E-2
2.176587406E1,-5.708128586E-2,1.677466035E-1,-1.406469345E-1
2.178588421E1,-5.504131317E-3,-1.413387060E-2,-2.394533157E-1
2.180571968E1,-1.472614706E-3,-1.335813999E-1,-1.593751907E-1
2.182639473E1,3.024969622E-2,-1.960128546E-1,-1.627883911E-1
2.184574708E1,6.613668054E-2,-2.135353684E-1,-2.058162689E-1
2.185580067E1,9.461044520E-2,-2.359981537E-1,-1.789360046E-1
2.187574114E1,2.425642610E-1,-1.694294214E-1,-1.185989380E-1
2.188580520E1,2.576229274E-1,-1.470048428E-1,-1.198272705E-1
2.189592286E1,2.497871965E-1,-1.204219460E-1,-1.248073578E-1
2.190696057E1,2.182718515E-1,-1.085844040E-1,-1.203479767E-1
2.192583676E1,1.183925718E-1,-8.532905579E-2,-2.179002762E-1
2.194574942E1,1.772769727E-2,-7.160288095E-2,-2.685470581E-1
2.195582562E1,-1.289736573E-2,-3.920745850E-2,-2.673444748E-1
2.197696317E1,-5.263331160E-2,4.490375519E-3,-2.885265350E-1
2.199593182E1,-3.801549971E-2,5.734586716E-2,-2.148513794E-1
2.201585952E1,1.615159214E-2,9.188008308E-2,-1.147489548E-1
2.203590286E1,9.498026967E-2,9.879046679E-2,3.205299377E-3
2.204614832E1,1.105819568E-1,8.954519033E-2,-2.287483215E-2
2.206572869E1,4.988640547E-2,3.202867508E-2,-2.601814270E-2
2.207575718E1,-6.008513272E-3,5.456984043E-3,3.175449371E-2
2.208586671E1,-3.742907196E-2,-6.321251392E-3,3.569602966E-2
2.209635067E1,-4.750787467E-2,1.008909941E-2,2.366065979E-3
2.211596551E1,-3.587663919E-2,7.696503401E-2,-1.903848648E-1
2.213575265E1,2.754132450E-2,5.806344748E-2,6.447696686E-2
2.215585234E1,3.795960173E-2,-1.954954863E-2,-1.983251572E-1
2.216697463E1,9.067021310E-3,-4.765915871E-2,-2.083797455E-1
2.218571223E1,-3.806475177E-2,-7.458359003E-2,-2.040710449E-1
2.219573838E1,-3.702520579E-2,-6.423270702E-2,-1.477460861E-1
2.220587088E1,-2.055832371E-2,-4.563647509E-2,-1.116838455E-1
2.222574275E1,-2.351835370E-3,-8.915245533E-3,-3.233098984E-1
2.224633629E1,-6.875263900E-2,4.582405090E-4,-2.350845337E-1
2.226586473E1,-9.241573513E-2,-4.040002823E-3,-7.419681549E-2
2.227640239E1,-9.092833847E-2,4.474222660E-3,-7.939147949E-2
2.229573640E1,-8.444476128E-2,-4.653179646E-2,-5.450534821E-2
2.230591629E1,-7.697594166E-2,-8.676785231E-2,-3.842353821E-3
2.232571978E1,-5.407344922E-2,-1.087684631E-1,6.708621979E-2
2.233573682E1,-3.789365292E-2,-1.212529540E-1,4.440689087E-2
2.235582963E1,-3.186588734E-2,-9.075278044E-2,3.739356995E-2
2.237575734E1,1.440768596E-2,-6.072825193E-2,-2.569961548E-2
2.238589702E1,3.495802730E-2,-3.958362341E-2,-1.952266693E-2
2.239613239E1,5.627715215E-2,-1.749086380E-2,-5.526733398E-2
2.241588296E1,1.033451036E-1,1.587784290E-2,-1.207761765E-1
2.242589848E1,8.534235507E-2,2.085697651E-2,-2.498121262E-1
2.244949603E1,6.912596524E-2,1.838237047E-2,9.947013855E-2
2.246575301E1,6.018597260E-2,2.703464031E-2,-3.343420029E-1
2.247590473E1,5.409305915E-2,4.605966806E-2,-2.328472137E-1
2.249578504E1,4.767460376E-2,2.149951458E-2,-1.092395782E-1
2.250611030E1,5.020482093E-2,2.896946669E-2,-1.888074875E-1
2.252570859E1,4.945147038E-2,2.425265312E-2,-3.326892853E-2
2.253574093E1,5.682396516E-2,1.840341091E-2,9.142875671E-3
2.255583062E1,4.237116128E-2,-3.795742989E-3,-2.474975586E-2
2.257582301E1,1.182637922E-2,-4.696357250E-2,6.207466125E-2
2.258601801E1,-4.809679464E-3,-6.535315514E-2,4.206275940E-2
2.259621458E1,-1.174463890E-2,-7.980895042E-2,-1.980781555E-3
2.261590557E1,-3.085882589E-2,-7.122671604E-2,-3.987407684E-2
2.263584239E1,-3.723242879E-2,-5.382895470E-2,-3.245353699E-3
2.265571041E1,-5.105727538E-2,-4.020786285E-2,-1.019134521E-1
2.266593338E1,-7.251293212E-2,-5.012404919E-2,-1.195211411E-1
2.267601458E1,-5.718632042E-2,-4.490745068E-2,-1.406383514E-1
2.269602499E1,-5.868598819E-3,-5.753886700E-2,-1.408720016E-1
2.271622499E1,-5.172632635E-2,-2.997541428E-2,-1.577739716E-1
2.273594452E1,-6.520111114E-2,-7.152676582E-3,-1.577749252E-1
2.274603614E1,-4.704547673E-2,3.965854645E-3,-1.823425293E-1
2.276589848E1,2.625305206E-3,1.747632027E-2,-1.357364655E-1
2.278570499E1,3.153429925E-2,6.605386734E-4,-1.382465363E-1
2.279572442E1,2.426620945E-2,-8.351683617E-3,-1.174230576E-1
2.280590582E1,3.020642698E-2,-1.426100731E-3,-1.073274612E-1
2.282583129E1,4.342463613E-2,-2.107214928E-2,-4.016876221E-2
2.284581650E1,3.269832581E-2,-4.846167564E-2,-1.377296448E-2
2.285621405E1,3.254290298E-2,-5.216491222E-2,-4.196262360E-2
2.287572817E1,1.975459792E-2,-2.484393120E-2,-2.135353088E-1
2.288799249E1,2.040157095E-2,-6.995797157E-3,-1.956634521E-1
2.290575895E1,4.548589140E-2,-5.484616756E-2,-2.214241028E-1
2.291587806E1,4.371079430E-2,-3.925347328E-2,-3.311157227E-1
2.293665374E1,3.398552537E-3,-5.313670635E-2,-1.146898270E-1
2.294671754E1,-4.413393512E-2,-5.359637737E-2,-1.523160934E-1
2.295705968E1,-4.747823626E-2,-3.029155731E-2,-1.227855682E-1
2.297572114E1,3.189085424E-2,2.810835838E-3,-1.999521255E-1
2.298573624E1,7.225710154E-2,3.207659721E-2,-2.421016693E-1
2.299642364E1,2.310376242E-2,1.239299774E-2,-1.332378387E-1
2.301589937E1,-2.310087532E-2,7.568717003E-3,-1.192846298E-1
2.303608192E1,-2.982227877E-2,-1.694607735E-2,-1.049242020E-1
2.304690603E1,-9.884832427E-3,-3.075373173E-2,-1.064701080E-1
2.305718291E1,1.463530026E-2,-3.127884865E-2,-1.297006607E-1
2.307612478E1,1.134140603E-2,-4.946124554E-2,-1.034908295E-1
2.309650572E1,-3.977743909E-3,-5.006706715E-2,-1.683044434E-1
2.311584619E1,1.713290066E-2,-7.000148296E-2,-1.166963577E-1
2.313620093E1,3.212297708E-2,-9.014129639E-2,-1.258316040E-1
2.314624093E1,2.742840350E-2,-8.132636547E-2,-1.490659714E-1
2.316581348E1,1.417390257E-2,-7.556343079E-2,-1.383781433E-1
2.318586864E1,1.043072436E-2,-1.627743244E-2,-1.853561401E-1
2.320582593E1,1.209251117E-2,3.550302982E-2,-8.273983002E-2
2.321623140E1,1.702835597E-2,1.808631420E-2,6.028461456E-2
2.323671608E1,-4.274161160E-2,-6.434440613E-3,-5.045890808E-2
2.325584306E1,-1.663443446E-2,1.668035984E-2,-2.294769287E-1
2.326640739E1,4.098275676E-4,9.755134583E-3,-1.252956390E-1
2.328588780E1,-1.769622788E-2,5.146265030E-4,-1.001100540E-1
2.329626108E1,-2.338658087E-3,-1.236081123E-3,-1.133508682E-1
2.330635218E1,3.235031664E-2,1.341784000E-2,-1.434030533E-1
2.332644890E1,3.376943991E-2,2.082109451E-2,-1.604576111E-1
2.334584114E1,3.247565404E-2,1.836431026E-2,-1.766891479E-1
2.335597036E1,4.359035194E-2,-2.150416374E-3,-1.388978958E-1
2.337572489E1,6.029592454E-2,-4.182600975E-2,-1.556320190E-1
2.338581879E1,4.976586998E-2,-4.621946812E-2,-2.268600464E-1
2.340573911E1,4.582028091E-2,-2.268517017E-2,-2.829599380E-1
2.341634848E1,1.931695268E-2,-1.936507225E-2,-2.221059799E-1
2.343690489E1,2.404514886E-2,-8.855700493E-3,-1.887865067E-1
2.345571431E1,-1.612452418E-2,-1.817035675E-2,-2.328186035E-1
2.346722895E1,-3.607861698E-2,-3.989887238E-2,-2.321300507E-1
2.348588437E1,-1.474127173E-2,-2.296948433E-2,-1.477556229E-1
2.350584010E1,-5.422065035E-3,-1.138138771E-2,-1.205902100E-1
2.351589603E1,-1.205601450E-2,-1.085042953E-2,-1.316127777E-1
2.353581499E1,1.370977610E-3,-9.448885918E-3,-1.515331268E-1
2.354581905E1,-6.911130622E-3,-1.081943512E-2,-1.518745422E-1
2.356573358E1,-3.017023019E-2,-1.853704453E-4,-1.104707718E-1
2.358574062E1,1.419940963E-3,8.630394936E-3,-1.049070358E-1
2.359642119E1,2.520792186E-4,1.517057419E-3,-8.965396881E-2
2.361858671E1,-5.742745474E-3,-1.501858234E-2,-6.408023834E-2
2.363573879E1,-5.853502080E-3,8.534789085E-3,-3.293209076E-1
2.364585239E1,2.219950408E-2,4.508221149E-2,-1.889238358E-1
2.366575077E1,7.152834535E-2,2.116584778E-2,-2.746915817E-1
2.367583770E1,5.395555124E-2,3.057527542E-2,-3.748359680E-1
2.368636301E1,-1.639795303E-2,-1.553964615E-2,-1.337099075E-1
2.370576395E1,-3.974346444E-3,-1.533305645E-2,-1.432695389E-1
2.371649583E1,1.350120269E-2,-1.110553741E-3,-1.172580719E-1
2.373572051E1,5.209226534E-2,4.916024208E-2,-2.676630020E-1
2.375580093E1,2.257252671E-2,6.259882450E-2,-9.480571747E-2
2.376585947E1,6.719576195E-3,7.702064514E-2,-1.043748856E-1
2.377643718E1,-1.347495057E-2,7.935941219E-2,-1.426897049E-1
2.379571609E1,-2.049488202E-2,2.065432072E-2,-1.397123337E-1
2.380594385E1,-7.326771505E-3,1.500725746E-3,-1.073904037E-1
2.382573077E1,1.677770168E-3,-5.016076565E-2,-7.838344574E-2
2.383588025E1,-1.757794060E-3,-6.346058846E-2,-9.934329987E-2
2.384605728E1,-7.564613130E-3,-5.744099617E-2,-1.036701202E-1
2.386602666E1,3.861081786E-3,-4.169023037E-2,-1.268091202E-1
2.388573421E1,8.844762109E-3,-4.604709148E-2,-1.965856552E-1
2.390574124E1,2.705569565E-2,-3.769636154E-2,-1.666107178E-1
2.392574166E1,5.271922797E-2,1.256823540E-3,-1.576681137E-1
2.393580640E1,3.718543798E-2,2.343952656E-2,-1.916809082E-1
2.395670145E1,4.405868240E-3,6.851804256E-2,-2.378845215E-2
2.397721140E1,1.049226895E-2,3.052091599E-2,-2.581729889E-1
2.399571317E1,-2.857828699E-2,4.005646706E-2,-1.693735123E-1
2.400587728E1,-2.329486981E-2,2.657139301E-2,-6.420707703E-2
2.402571749E1,8.861680515E-3,3.366625309E-2,-1.115961075E-1
2.403587306E1,1.748250215E-3,4.055941105E-2,-1.456985474E-1
2.404591312E1,-1.172816474E-2,4.533755779E-2,-1.463832855E-1
2.405603562E1,-1.338593755E-2,5.862092972E-2,-1.231088638E-1
2.407597301E1,-3.532194346E-2,5.103170872E-2,-1.198511124E-1
2.409574546E1,-2.942977846E-2,4.444968700E-2,-1.538372040E-1
2.410593640E1,-2.299009264E-2,2.726197243E-2,-1.196947098E-1
2.411625588E1,-2.981584519E-3,2.291381359E-2,-9.396648407E-2
2.413573338E1,4.290724918E-2,4.834413528E-3,-1.488914490E-1
2.415572213E1,2.877524681E-2,2.308249474E-3,-1.701593399E-1
2.416572359E1,1.999606378E-2,-6.991624832E-3,-1.969795227E-1
2.417609895E1,-1.464660000E-2,-7.137537003E-3,-1.867322922E-1
2.419613541E1,-2.175579593E-2,-8.187294006E-4,-1.494026184E-1
2.421663640E1,5.666684359E-3,-7.906913757E-3,-1.767301559E-1
2.423601973E1,-2.167895436E-4,-1.975417137E-3,-1.431369781E-1
2.425572239E1,8.535068482E-3,4.649853706E-2,-1.373643875E-1
2.426578458E1,8.839643560E-3,4.874682426E-2,-1.645641327E-1
2.428573994E1,-1.305623539E-2,6.990468502E-2,-1.964426041E-1
2.429574223E1,-4.501879588E-2,6.271839142E-2,-1.770362854E-1
2.430586905E1,-5.192355067E-2,4.685562849E-2,-1.539402008E-1
2.432572504E1,-2.607586794E-2,5.416703224E-2,-1.277780533E-1
2.433572869E1,-1.146502048E-2,3.865128756E-2,-1.522855759E-1
2.434746291E1,1.625974104E-2,4.737025499E-2,-1.803541183E-1
2.436612895E1,3.339194134E-2,2.915680408E-2,-1.788854599E-1
2.438823947E1,4.330256954E-2,2.676659822E-2,-1.654138565E-1
2.440139054E1,3.282760084E-2,4.343545437E-2,-1.221237183E-1
2.441612765E1,3.323325887E-3,5.184537172E-2,-1.142873764E-1
2.443587593E1,-9.506277740E-3,5.993419886E-2,-1.680650711E-1
2.444683525E1,2.897254191E-3,6.469422579E-2,-1.865549088E-1
2.446673317E1,1.638698019E-2,3.475695848E-2,-1.527862549E-1
2.448572312E1,5.514003336E-3,3.152072430E-3,-1.117620468E-1
2.449583546E1,2.073191106E-3,-1.486229897E-2,-2.403736115E-1
2.451581093E1,4.424560070E-2,3.136461973E-2,-6.654834747E-2
2.452594864E1,6.281891465E-2,7.056951523E-3,-3.096294403E-2
2.453650739E1,6.228443980E-2,1.798999310E-2,-1.535549164E-1
2.455575088E1,4.815291613E-3,5.075377226E-2,-3.141412735E-1
2.457573364E1,-9.376840666E-3,5.704474449E-2,-3.244838715E-1
2.459593963E1,-7.424291223E-3,2.981317043E-2,-9.202671051E-2
2.460893661E1,-6.023704261E-2,1.502752304E-3,-1.457643509E-1
2.462585895E1,-5.802001804E-2,2.424573898E-2,-2.245779037E-1
2.463888244E1,-3.038440458E-2,5.060648918E-2,-1.630334854E-1
2.465582812E1,6.034573540E-3,8.640480042E-2,-6.628227234E-2
2.467584900E1,3.025844879E-2,6.899648905E-2,-1.246900558E-1
2.469583213E1,1.934705861E-2,1.947903633E-2,-1.201400757E-1
2.470589239E1,-3.131788224E-3,-1.822614670E-2,-1.286716461E-1
2.472584228E1,-3.308474272E-2,-5.390089750E-2,-1.635684967E-1
2.473585478E1,-2.330974676E-2,-6.070595980E-2,-1.671295166E-1
2.474588447E1,-9.925027378E-3,-6.181800365E-2,-1.406860352E-1
2.476587468E1,2.654625103E-2,-6.354719400E-2,-1.284580231E-1
2.477587661E1,3.878923506E-2,-6.979084015E-2,-1.319732666E-1
2.479579030E1,3.984630108E-2,-5.386793613E-2,-1.319456100E-1
2.481648817E1,1.940063760E-2,2.239692211E-2,-9.616470337E-2
2.483571140E1,2.967686392E-3,4.655492306E-2,-4.257869720E-2
2.484583556E1,-2.072362974E-2,7.323217392E-2,-3.099031448E-1
2.485603108E1,-3.729136661E-4,1.079483032E-1,-3.913059235E-1
2.486815655E1,2.690413781E-2,8.709698915E-2,-2.178192139E-3
2.487955572E1,2.841584198E-2,8.807450533E-2,-2.094268799E-3
2.489573661E1,1.245003007E-2,5.616736412E-2,-1.673574448E-1
2.491572801E1,-3.737974539E-2,6.521320343E-2,-1.293878555E-1
2.492585234E1,-3.695439547E-2,5.967313051E-2,-4.445552826E-2
2.494586207E1,-1.155332103E-2,6.320786476E-2,-1.033182144E-1
2.495593827E1,1.175270136E-2,7.691007853E-2,-1.968460083E-1
2.497572499E1,2.552147582E-2,9.095305204E-2,-1.814126968E-1
2.498573291E1,1.212010160E-3,7.067704201E-2,-9.871101379E-2
2.499582364E1,9.197421372E-3,4.860025644E-2,-1.332759857E-1
2.500680364E1,7.955658250E-3,3.710812330E-2,-1.786279678E-1
2.502573843E1,6.370099261E-3,6.710290909E-3,-5.995941162E-2
2.503577937E1,8.466290310E-4,-6.939470768E-3,-4.912662506E-2
2.504585577E1,7.741038688E-3,-1.827543974E-2,-1.103248596E-1
2.506589520E1,-2.918479219E-2,-4.059761763E-2,-1.238498688E-1
2.507590510E1,-2.069350332E-2,-3.079831600E-2,-1.240253448E-1
2.508687207E1,-1.481244341E-2,-2.320486307E-2,-1.325664520E-1
2.510573343E1,4.229750484E-4,1.109838486E-2,-2.214736938E-1
2.511574181E1,-1.186331362E-2,3.582638502E-2,-2.048444748E-1
2.512588952E1,-1.591664366E-2,6.588625908E-2,-1.331033707E-1
2.514580629E1,-5.440941080E-3,1.201944351E-1,-1.093177795E-1
2.516580588E1,1.492127776E-3,1.408137679E-1,-8.822727203E-2
2.517586431E1,7.636883296E-3,1.249687076E-1,-1.088886261E-1
2.518736999E1,6.393205374E-3,8.475506306E-2,-1.367645264E-1
2.520575806E1,1.442192122E-3,3.383511305E-2,-1.649169922E-1
2.522590384E1,2.655141801E-2,-1.294386387E-2,-1.568260193E-1
2.523939155E1,3.094660118E-2,-4.458075762E-2,-1.401081085E-1
2.525596937E1,1.792744920E-2,-4.620414972E-2,-1.173982620E-1
2.527584312E1,-6.260452792E-3,-2.995282412E-2,-1.069469452E-1
2.529705713E1,-1.637376100E-2,1.417350769E-2,-1.360607147E-1
2.531573567E1,-1.327396743E-2,2.791053057E-2,-1.819629669E-1
2.532585697E1,-5.073821172E-3,2.677190304E-2,-1.617889404E-1
2.533922416E1,-2.454743162E-2,3.924661875E-2,-1.451711655E-1
2.535573890E1,-1.178121567E-2,2.982872725E-2,-1.393537521E-1
2.537581192E1,-1.058488153E-2,2.888560295E-3,-1.709747314E-1
2.538588713E1,-1.132008992E-2,-1.885354519E-3,-1.412239075E-1
2.540593348E1,1.847261190E-2,1.904606819E-3,-1.512308121E-1
2.542589384E1,2.657915093E-2,1.279866695E-2,-1.660289764E-1
2.544716260E1,6.430195644E-3,1.891231537E-2,-1.665439606E-1
2.546658494E1,2.052597515E-2,3.731608391E-3,-1.921758652E-1
2.548574723E1,1.539248228E-2,2.586627007E-2,-1.351957321E-1
2.549588384E1,1.730781049E-2,2.315181494E-2,-1.054630280E-1
2.550619650E1,-4.128042608E-3,2.574527264E-2,-1.775302887E-1
2.552575291E1,-3.130547702E-4,3.096675873E-2,-1.851034164E-1
2.553577593E1,-2.983504906E-3,3.281331062E-2,-1.457195282E-1
2.554589233E1,1.447003335E-3,3.140664101E-2,-7.877826691E-2
2.556577848E1,1.032667235E-3,3.026050329E-2,-2.119884491E-1
2.557764572E1,-2.884498984E-2,4.004591703E-2,-4.564332962E-1
2.559573046E1,3.415330499E-2,4.822415113E-2,6.910419464E-2
2.560586327E1,6.296177208E-2,1.570808887E-2,1.937656403E-1
2.562574447E1,-7.933240384E-3,-2.354109287E-2,-4.447889328E-1
2.564612108E1,-5.680544302E-2,-1.342886686E-2,-2.992181778E-1
2.566645072E1,-1.457181945E-2,-6.506085396E-3,-4.982662201E-2
2.568765608E1,1.251303405E-2,2.670478821E-2,-1.419372559E-1
2.570589608E1,8.576331660E-3,7.427138090E-2,-1.277627945E-1
2.572586858E1,-9.636219591E-3,8.803230524E-2,-1.052274704E-1
2.574672332E1,1.028009504E-2,5.417621136E-2,-1.591882706E-1
2.576587400E1,1.194714196E-2,9.763538837E-3,-1.352519989E-1
2.578606437E1,6.730891764E-4,-1.091933250E-2,-1.040668488E-1
2.580573124E1,-2.403132990E-2,-2.818840742E-2,-1.328306198E-1
2.581583515E1,-2.003146335E-2,-2.524328232E-2,-1.364641190E-1
2.583779062E1,-2.500169724E-2,-2.172136307E-2,-1.366271973E-1
2.584856791E1,4.106428474E-3,-1.625698805E-2,-1.654729843E-1
2.586571588E1,2.734406851E-2,1.223921776E-3,-1.513004303E-1
2.587641635E1,2.628152072E-2,1.328754425E-2,-1.382064819E-1
2.589650348E1,1.171601377E-2,3.184235096E-2,-2.078399658E-1
2.591581697E1,-1.274213567E-2,3.898739815E-2,6.196975708E-3
2.592741650E1,-2.723475918E-2,4.110348225E-2,-1.843204498E-1
2.594705806E1,8.378617465E-3,3.695076704E-2,-1.689310074E-1
2.595944978E1,1.500660926E-2,2.543252707E-2,-1.389608383E-1
2.597588452E1,1.533638686E-3,1.844155788E-2,-1.736478806E-1
2.599686702E1,-2.441980317E-2,3.333461285E-2,-1.367311478E-1
2.601572239E1,-1.000140607E-2,5.776715279E-2,-1.153144836E-1
2.602586416E1,1.313418150E-2,7.212442160E-2,-1.213827133E-1
2.603588885E1,2.890369482E-2,7.799124718E-2,-8.795547485E-2
2.605573421E1,2.064053342E-2,4.546928406E-2,-4.152584076E-2
2.606577187E1,1.677501947E-2,9.833335876E-3,-1.566686630E-1
2.607583056E1,1.147389412E-3,2.467274666E-3,-2.131805420E-1
2.609584801E1,7.814414799E-3,1.469552517E-3,-1.296796799E-1
2.610694629E1,1.166799292E-2,-1.312279701E-2,-1.046295166E-1
2.612584577E1,3.192823380E-3,5.662441254E-4,-2.006635666E-1
2.613640582E1,-3.142606467E-3,-3.297448158E-3,-1.924486160E-1
2.615576135E1,-1.754538715E-2,-1.467823982E-3,-1.627712250E-1
2.616587004E1,-6.041787565E-4,-1.143944263E-2,-1.820173264E-1
2.617590124E1,2.905633301E-3,-1.172363758E-3,-1.857099533E-1
2.619576713E1,-2.009759843E-2,1.526117325E-2,-1.452455521E-1
2.621586957E1,-1.672023162E-2,3.515493870E-2,-1.742200851E-1
2.622590166E1,-1.783944666E-3,2.589130402E-2,-1.791324615E-1
2.624586062E1,-4.355859011E-3,2.721428871E-2,-1.458196640E-1
2.626573119E1,-3.693498671E-3,2.263498306E-2,-1.567230225E-1
2.627713890E1,1.290808618E-2,2.060753107E-2,-1.640939713E-1
2.629573119E1,-4.004683346E-3,1.806336641E-2,-1.427659988E-1
2.630575155E1,-7.282748818E-3,1.744288206E-2,-1.320981979E-1
2.631601483E1,-9.352359921E-3,3.583097458E-2,-1.441850662E-1
2.633583900E1,7.278937846E-3,3.410422802E-2,-1.575899124E-1
2.634593812E1,-1.839086413E-3,4.195982218E-2,-1.529016495E-1
2.635596343E1,-2.461716533E-3,5.201262236E-2,-1.446304321E-1
2.637589286E1,-7.584508508E-3,3.475314379E-2,-1.293020248E-1
2.639579004E1,3.988798708E-3,1.935589314E-2,-1.463241577E-1
2.640940426E1,8.187890053E-4,2.326941490E-2,-1.524267197E-1
2.642576603E1,8.479211479E-3,1.992595196E-2,-1.309986115E-1
2.644572692E1,1.955464855E-2,1.396310329E-2,-1.564006805E-1
2.645604895E1,1.292036846E-2,7.228732109E-3,-1.600990295E-1
2.647575801E1,8.266761899E-3,2.532899380E-3,-1.554994583E-1
2.648620082E1,6.845813245E-3,8.103966713E-3,-1.747379303E-1
2.650573176E1,3.233335912E-3,-4.147648811E-3,-1.605148315E-1
2.651581567E1,-3.092043102E-3,-1.618742943E-3,-1.318464279E-1
2.653571707E1,5.150217563E-3,1.845204830E-2,-9.608936310E-2
2.654646114E1,2.663582563E-5,2.264922857E-2,-1.117534637E-1
2.656570489E1,-1.047006249E-2,4.590356350E-2,-1.957178116E-1
2.657588681E1,-1.454495639E-2,4.059320688E-2,-1.646184921E-1
2.659587499E1,-6.802447140E-3,3.781247139E-2,-9.512996674E-2
2.661583364E1,-2.399355173E-3,2.912157774E-2,-1.358509064E-1
2.662590702E1,-2.076549828E-2,3.268271685E-2,-3.442153931E-1
2.664587848E1,1.602265611E-2,2.414345741E-2,3.377914429E-3
2.666651119E1,2.236378193E-2,-3.351825476E-2,-3.247270584E-1
2.668576291E1,-6.220870465E-2,-2.900040150E-2,-3.430004120E-1
2.669583666E1,-6.791041791E-2,-2.044636011E-2,-9.739398956E-2
2.670587686E1,-2.825660259E-2,-1.597362757E-2,3.340530396E-2
2.672590249E1,2.870125696E-2,2.817952633E-2,-8.005332947E-2
2.674584426E1,9.985078126E-3,6.325733662E-2,-1.125688553E-1
2.675600051E1,-4.817798734E-3,9.339472651E-2,-5.158233643E-2
2.677576134E1,-4.573352635E-3,7.864823937E-2,-8.752250671E-2
2.679570546E1,-7.944479585E-4,4.101240635E-2,-1.581649780E-1
2.680606155E1,1.112414524E-2,3.657203913E-2,-1.449708939E-1
2.681675166E1,5.564574152E-3,2.559703588E-2,-1.257581711E-1
2.683717312E1,-9.175330400E-3,-9.958922863E-3,-9.208774567E-2
2.685571884E1,-2.720805258E-2,-2.879410982E-2,-1.088294983E-1
2.687573265E1,-3.370454162E-2,-4.115045071E-2,-1.328554153E-1
2.688573629E1,-6.943859160E-3,-3.278422356E-2,-1.413002014E-1
2.690571572E1,1.101732254E-2,-2.969235182E-2,-8.872318268E-2
2.691572687E1,2.046434954E-2,-1.816666126E-2,-9.234046936E-2
2.692744332E1,1.921190321E-2,9.834051132E-3,-9.238147736E-2
2.694576207E1,4.660803825E-3,2.272677422E-2,-1.607646942E-1
2.696582806E1,9.547919035E-5,2.794188261E-2,7.918357849E-3
2.697595473E1,-1.516955346E-2,2.240985632E-2,-2.136497498E-1
2.698634952E1,5.691148341E-3,2.496916056E-2,-3.334703445E-1
2.700628999E1,1.348449662E-2,1.871311665E-2,-1.286773682E-1
2.702574202E1,1.095518470E-2,1.568937302E-2,-1.225042343E-1
2.704572614E1,-1.490050554E-2,2.836972475E-2,-1.297092438E-1
2.705918067E1,-5.943387747E-3,6.906500459E-2,-7.345104218E-2
2.707593051E1,1.518841460E-2,7.215246558E-2,-9.730148315E-2
2.708594322E1,3.007159010E-2,8.577856421E-2,-1.008720398E-1
2.710571905E1,1.291969791E-2,2.204734087E-2,-1.104841232E-1
2.711574973E1,-6.882742047E-3,9.054005146E-3,-1.943511963E-1
2.712576093E1,-8.985273540E-3,3.993451595E-3,-2.039489746E-1
2.714591067E1,7.302906364E-3,-3.532290459E-3,-8.406257629E-2
2.716572671E1,1.331277192E-3,-3.937363625E-3,-1.761283875E-1
2.717585926E1,1.191782951E-2,-2.245533466E-2,-2.083415985E-1
2.718644916E1,-2.847060561E-3,-1.860970259E-2,-1.651582718E-1
2.720576364E1,-9.768195450E-3,-3.139185905E-2,-1.492948532E-1
2.721814989E1,-4.577510059E-3,-2.274626493E-2,-1.503381729E-1
2.723586780E1,-1.608331501E-2,-1.200735569E-2,-1.584434509E-1
2.725595588E1,-8.323170245E-3,6.967782974E-4,-1.605148315E-1
2.727578343E1,1.591108739E-3,9.136319160E-3,-1.409368515E-1
2.729584577E1,5.641803145E-4,1.321429014E-2,-1.452713013E-1
2.730719478E1,-1.247860491E-2,1.093930006E-2,-1.498374939E-1
2.732572369E1,-6.744332612E-3,7.415354252E-3,-1.541910172E-1
2.733590286E1,-7.264815271E-3,2.628588676E-2,-1.599063873E-1
2.735573582E1,1.396596432E-3,3.299772739E-2,-1.606254578E-1
2.737573150E1,1.351074874E-2,1.971256733E-2,-1.720132828E-1
2.738583593E1,-5.632340908E-4,1.632124186E-2,-1.573400497E-1
2.739592437E1,6.732322276E-3,4.364192486E-3,-1.438741684E-1
2.740663666E1,7.383525372E-4,-6.471872330E-4,-1.328163147E-1
2.742591447E1,3.000684083E-3,-1.695734262E-2,-1.514921188E-1
2.744576317E1,1.643703878E-2,-1.738733053E-2,-1.630353928E-1
2.746590494E1,2.302613854E-2,-7.948338985E-3,-1.912240982E-1
2.747592483E1,2.755173296E-2,-8.570432663E-3,-1.682024002E-1
2.749609291E1,2.242205665E-2,6.731867790E-3,-1.364641190E-1
2.751576437E1,9.158451110E-3,-3.458559513E-3,-1.335611343E-1
2.752588770E1,1.839153469E-3,-6.922543049E-3,-1.369028091E-1
2.754585254E1,6.451159716E-4,-5.247235298E-3,-2.201795578E-1
2.756587666E1,1.450014114E-2,-1.275020838E-2,-9.375476837E-2
2.757621926E1,1.219940186E-2,-1.773369312E-2,-7.547664642E-2
2.758678754E1,1.908842102E-2,-1.676875353E-2,-1.865739822E-1
2.759683259E1,-2.391323447E-3,7.595717907E-3,-3.994598389E-1
2.761585770E1,1.987610012E-2,-1.008307934E-2,-5.148220062E-2
2.762657884E1,5.895148963E-2,-3.127300739E-2,1.299276352E-1
2.764587384E1,2.926308289E-2,-5.533492565E-2,-3.351602554E-1
2.766590723E1,-4.600821435E-2,-5.854654312E-2,-2.797317505E-1
2.767615270E1,-5.269783735E-2,-4.051089287E-2,-9.842586517E-2
2.769580957E1,1.990859956E-2,5.604922771E-3,-8.689880371E-3
2.771587020E1,2.133573219E-2,5.636280775E-2,-1.960296631E-1
2.772616384E1,-2.651255578E-3,8.793199062E-2,-1.849374771E-1
2.774578952E1,-2.980339341E-2,8.835095167E-2,-9.646987915E-2
2.776591749E1,-1.826597750E-2,3.418815136E-2,-1.777238846E-1
2.778580791E1,4.383996129E-4,-1.460176706E-2,-1.428833008E-1
2.780573785E1,-2.471314743E-2,-6.727707386E-2,-1.020641327E-1
2.782572452E1,-2.610307559E-2,-9.086126089E-2,-1.346263885E-1
2.783575181E1,-3.692341968E-2,-8.847630024E-2,-1.617460251E-1
2.784592650E1,-2.958683670E-2,-8.373421431E-2,-1.421775818E-1
2.786591192E1,1.000254042E-2,-6.834870577E-2,-1.232872009E-1
2.787643931E1,2.381874993E-2,-6.034582853E-2,-1.408538818E-1
2.789592390E1,3.504667059E-2,-3.775799274E-2,-1.233654022E-1
2.791571869E1,3.906396404E-2,-2.112966776E-2,-2.376575470E-1
2.792621504E1,5.972485989E-3,-4.975020885E-3,-1.440153122E-1
2.794590806E1,1.481699198E-2,-5.675435066E-3,-8.858108521E-2
2.795612452E1,-5.192486569E-3,5.551099777E-3,-2.977094650E-1
2.797599265E1,1.065073349E-2,5.209624767E-3,-1.557025909E-1
2.799646390E1,7.287641987E-3,-6.300628185E-3,-2.060070038E-1
2.801573062E1,1.559914462E-2,8.852779865E-3,-6.605529785E-2
2.802583952E1,1.203444414E-2,2.024930716E-2,-3.561878204E-2
2.803593291E1,1.644148864E-2,2.150058746E-2,-8.424282074E-2
2.805584603E1,3.194640204E-2,2.537924051E-2,-1.432733536E-1
2.807622395E1,4.439692944E-3,-1.120895147E-2,-5.370903015E-2
2.809573608E1,3.660092130E-3,-4.310858250E-2,-1.234779358E-1
2.810595358E1,-8.415418677E-3,-5.666363239E-2,-1.494989395E-1
2.812575640E1,-1.268052869E-2,-4.729866982E-2,-1.607799530E-1
2.813581145E1,-1.285822969E-2,-5.579870939E-2,-1.543273926E-1
2.815582614E1,-1.176761463E-2,-6.687307358E-2,-1.749382019E-1
2.816590535E1,-8.582500741E-3,-7.076847553E-2,-1.851329803E-1
2.818588103E1,-7.225087844E-3,-7.932448387E-2,-1.514778137E-1
2.820584713E1,-1.847898774E-2,-6.114578247E-2,-1.740255356E-1
2.822583702E1,-2.721325681E-2,-3.395187855E-2,-1.403503418E-1
2.824790858E1,-2.702514082E-2,-6.683826447E-3,-1.500034332E-1
2.826586598E1,-1.117330045E-2,8.754730225E-3,-1.322259903E-1
2.827609051E1,-4.185670055E-3,1.593804359E-2,-1.484651566E-1
2.828639525E1,1.439483371E-3,1.030623913E-2,-1.598768234E-1
2.830576238E1,-1.270716311E-3,7.637858391E-3,-1.011304855E-1
2.832578405E1,6.320369430E-4,-3.939390182E-3,-1.320762634E-1
2.833581431E1,1.258879900E-3,-6.247758865E-3,-1.421699524E-1
2.834722056E1,-6.364696659E-3,-2.063596249E-2,-1.594533920E-1
2.836589119E1,-3.156554885E-3,-3.068387508E-2,-1.413879395E-1
2.837598884E1,2.008062787E-3,-4.321062565E-2,-1.204156876E-1
2.839591004E1,8.079682477E-3,-3.043198586E-2,-1.420974731E-1
2.841617353E1,1.344240550E-2,-2.355825901E-2,-1.136236191E-1
2.843586999E1,2.098960616E-2,-2.100110054E-3,-1.977853775E-1
2.844588775E1,1.002032682E-2,-8.910655975E-3,-1.733741760E-1
2.846586983E1,-3.917565569E-3,-1.306724548E-2,-9.555149078E-2
2.847587921E1,1.404192112E-2,-3.566575050E-2,-7.940196991E-2
2.848596603E1,1.321884990E-2,-3.582489491E-2,-1.363077164E-1
2.850573494E1,1.293151639E-2,-1.452946663E-2,-3.234195709E-1
2.851607765E1,4.064422473E-2,-3.347444534E-2,-1.624069214E-1
2.853580754E1,7.183130831E-2,-6.333196163E-2,-2.665672302E-1
2.855572562E1,-6.160985678E-3,-5.774521828E-2,-1.579580307E-1
2.856584004E1,-4.501586780E-2,-7.681667805E-2,-1.705112457E-1
2.857615884E1,-5.670399964E-2,-6.113934517E-2,-1.170759201E-1
2.858618739E1,-5.475924909E-2,-3.020668030E-2,-5.875015259E-2
2.860571686E1,3.788955882E-2,5.066740513E-2,-1.831855774E-1
2.861573312E1,5.568774790E-2,6.434595585E-2,-2.018318176E-1
2.863589150E1,1.860457659E-2,4.873228073E-2,-8.181190491E-2
2.865582317E1,-2.180550620E-2,1.868176460E-2,-1.109638214E-1
2.867573567E1,-3.484839574E-2,-1.170635223E-3,-1.539592743E-1
2.868587285E1,-2.800223790E-2,-7.049322128E-3,-9.825801849E-2
2.869587848E1,-2.153441124E-2,-3.701508045E-2,-1.084127426E-1
2.871744535E1,-1.661387086E-2,-5.789685249E-2,-1.362695694E-1
2.873573640E1,-1.504905988E-2,-6.134808064E-2,-1.296319962E-1
2.874575504E1,-1.206962951E-2,-5.429494381E-2,-1.281328201E-1
2.875611478E1,-7.844265550E-3,-5.442225933E-2,-1.601533890E-1
2.877608311E1,6.556030363E-3,-6.208848953E-2,-1.344366074E-1
2.879800603E1,2.625607699E-2,-5.188930035E-2,-1.422491074E-1
2.881572801E1,2.144850418E-2,-1.269447803E-2,-2.856140137E-1
2.882629072E1,5.304772407E-3,1.699566841E-3,-1.190500259E-1
2.884585775E1,3.011321276E-2,-1.627647877E-2,-1.317329407E-1
2.886573921E1,5.527105182E-3,1.581311226E-2,-2.143516541E-1
2.887626426E1,-2.071459591E-2,-5.890965462E-3,-1.182880402E-1
2.889615926E1,-3.979828209E-3,1.202702522E-2,-1.800632477E-1
2.891605634E1,-2.170711756E-3,6.798148155E-3,-1.067790985E-1
2.892650119E1,2.945801988E-2,1.887488365E-2,-7.562828064E-2
2.894589072E1,4.129672423E-2,3.609013557E-2,-1.381053925E-1
2.896590556E1,2.050753310E-2,1.558363438E-2,-1.096906662E-1
2.898574718E1,9.964779019E-3,-1.918137074E-2,-1.602792740E-1
2.900583098E1,1.425267383E-2,-4.026615620E-2,-1.533374786E-1
2.901589515E1,7.788520306E-3,-4.257142544E-2,-1.365566254E-1
2.903594765E1,-7.447328418E-3,-4.563844204E-2,-1.735744476E-1
2.905605640E1,-2.582090348E-2,-4.834103584E-2,-1.961975098E-1
2.907580301E1,-1.460559294E-2,-6.381213665E-2,-2.150201797E-1
2.909573254E1,-3.328375518E-3,-7.196438313E-2,-2.025289536E-1
2.910583832E1,-1.148422062E-2,-5.179011822E-2,-1.746902466E-1
2.911587738E1,-1.974090934E-2,-4.605603218E-2,-1.504507065E-1
2.912599447E1,-5.771622062E-3,-1.885569096E-2,-1.824817657E-1
2.914598488E1,1.086115837E-3,-1.626610756E-3,-1.798591614E-1
2.916575567E1,-1.064822823E-2,6.832242012E-3,-1.436023712E-1
2.918590634E1,-5.412876606E-3,-3.425717354E-3,-1.348199844E-1
2.919615494E1,-1.998120919E-2,-1.303648949E-2,-1.502218246E-1
2.921644244E1,-1.259309426E-2,-6.922364235E-3,-1.416645050E-1
2.923572343E1,-1.721315086E-3,1.392257214E-2,-1.609144211E-1
2.924572858E1,7.231861353E-3,1.492655277E-2,-1.515226364E-1
2.925582275E1,-1.985058188E-3,1.303839684E-2,-1.266345978E-1
2.926585525E1,-6.159946322E-3,2.366316319E-2,-1.257791519E-1
2.928574931E1,2.120538056E-2,1.477491856E-2,-2.391862869E-1
2.929583765E1,2.859286964E-2,7.626414299E-3,-2.312879562E-1
2.931675223E1,4.147514701E-3,1.024127007E-2,-1.888046265E-1
2.933589192E1,-1.569867507E-2,7.619738579E-3,-9.698390961E-2
2.934623291E1,-1.344800368E-2,1.548099518E-2,-5.891513824E-2
2.936587603E1,4.015848041E-3,2.122783661E-2,-3.530502319E-1
2.938573822E1,6.377672404E-2,-1.822721958E-2,-1.736631393E-1
2.939576098E1,8.015935123E-2,-2.619898319E-2,-3.165130615E-1
2.940576244E1,6.512717903E-2,-2.852296829E-2,-1.890077591E-1
2.941577186E1,6.804414093E-3,-4.479253292E-2,-1.248970032E-1
2.943588338E1,-4.647232592E-2,-4.646706581E-2,-1.532354355E-1
2.945594213E1,-3.007262945E-3,4.823684692E-3,-7.835578918E-2
2.947570468E1,5.238932371E-2,4.220592976E-2,-2.074079514E-1
2.948590712E1,4.234729707E-2,5.327641964E-2,-1.705932617E-1
2.950573421E1,-6.887793541E-3,3.268826008E-2,-1.321849823E-1
2.951622848E1,-1.317700371E-2,3.141021729E-2,-1.488132477E-1
2.953639962E1,-3.000364639E-2,1.520121098E-2,-1.631450653E-1
2.955607603E1,-3.928397223E-2,-1.027345657E-3,-1.191167831E-1
2.957584811E1,-5.709948763E-2,-1.770901680E-2,-9.939193726E-2
2.958589910E1,-5.901416019E-2,-2.040863037E-2,-1.226501465E-1
2.959630666E1,-5.603334308E-2,-1.367378235E-2,-1.604423523E-1
2.961622296E1,-1.997333020E-3,1.601934433E-3,-1.677045822E-1
2.963588770E1,1.980476081E-2,-1.213347912E-2,-1.592655182E-1
2.964655895E1,1.586560905E-2,-1.176130772E-2,-1.478509903E-1
2.966603421E1,2.114344388E-2,8.000373840E-3,-1.573543549E-1
2.968588666E1,8.141417056E-3,2.482283115E-2,-2.302188873E-1
2.969725660E1,1.643530279E-2,2.575004101E-2,6.138896942E-2
2.971570858E1,-7.738657296E-4,3.048360348E-2,-2.139339447E-1
2.972684374E1,7.912460715E-3,4.673993587E-2,-3.028602600E-1
2.974575405E1,2.330865711E-3,3.597939014E-2,-9.979915619E-2
2.975703838E1,2.116736025E-2,3.338778019E-2,-9.906959534E-2
2.977579577E1,2.348408476E-2,3.300189972E-2,-1.324596405E-1
2.978594489E1,1.026418060E-2,2.720522881E-2,-1.425905228E-1
2.979602098E1,-5.825981498E-4,3.586816788E-2,-1.203842163E-1
2.981569384E1,7.924269885E-3,4.626119137E-2,-9.866809845E-2
2.982570457E1,1.269130036E-2,3.685998917E-2,-1.147699356E-1
2.983576754E1,3.621682525E-3,3.302633762E-2,-5.296707153E-2
2.984576827E1,-4.045329988E-4,9.373903275E-3,-8.102607727E-2
2.985748837E1,-6.443370134E-3,8.881449699E-3,-1.247358322E-1
2.987572681E1,-5.621470511E-3,-8.121013641E-3,-1.319980621E-1
2.988582301E1,-7.982179523E-3,-1.924705505E-2,-1.050548553E-1
2.990692483E1,-1.277620532E-2,-5.280971527E-4,-1.792201996E-1
2.992574301E1,-2.298320830E-2,7.635951042E-3,-1.444234848E-1
2.993633546E1,-2.241977677E-2,7.598638535E-3,-1.521539688E-1
2.995578176E1,-1.092226803E-2,-3.066301346E-3,-2.011041641E-1
2.996589061E1,-2.112324163E-2,7.308959961E-3,-2.207040787E-1
2.998586067E1,-1.904691570E-2,1.748323441E-2,-1.853933334E-1
2.999606869E1,-1.544797514E-2,3.381359577E-2,-1.448745728E-1
3.001736285E1,-6.969947368E-3,3.966772556E-2,-9.620475769E-2
3.003747072E1,-9.700366296E-3,4.705202579E-2,-1.173210144E-1
3.005573796E1,-3.190835007E-3,3.718483448E-2,-1.386156082E-1
3.006574124E1,-1.861827634E-2,2.468836308E-2,-1.594123840E-1
3.007581436E1,3.566471860E-4,2.096056938E-2,-1.837549210E-1
3.009762926E1,-1.784622669E-3,2.303051949E-2,-1.413326263E-1
3.011571884E1,1.118481532E-2,3.078687191E-2,-9.282398224E-2
3.012573249E1,7.487718016E-3,3.153967857E-2,-1.074886322E-1
3.013622244E1,-1.303494908E-3,3.551375866E-2,-1.209964752E-1
3.015589093E1,-7.213223726E-3,4.816675186E-2,-1.743545532E-1
3.017585061E1,8.321074769E-3,4.607677460E-2,-1.447725296E-1
3.018605108E1,1.024963334E-2,4.234373569E-2,-1.475572586E-1
3.020573817E1,8.516825736E-3,3.051507473E-2,-1.851501465E-1
3.021573843E1,1.196634397E-2,2.684760094E-2,-2.979326248E-1
3.022586926E1,1.600769348E-2,3.956651688E-2,-2.418384552E-1
3.023628843E1,3.543173522E-2,2.519845963E-2,-7.185077667E-2
3.024630827E1,6.716829538E-2,-4.694819450E-3,-8.262062073E-2
3.026585265E1,3.692966327E-2,-3.480780125E-2,-2.185268402E-1
3.028591374E1,-3.846481070E-2,-4.597812891E-2,-2.670583725E-1
3.030657629E1,2.313685976E-2,8.946299553E-3,-3.603172302E-2
3.032797905E1,2.483315207E-2,5.971646309E-2,-1.226606369E-1
3.034577535E1,9.878009558E-3,1.057246923E-1,-1.819896698E-1
3.035648650E1,6.921953987E-3,1.077385545E-1,-1.426420212E-1
3.037583890E1,-4.815017805E-3,1.013457179E-1,-1.474695206E-1
3.038592733E1,-2.623340301E-2,7.672178745E-2,-1.474161148E-1
3.040577473E1,-2.549695596E-2,3.546988964E-2,-1.210088730E-1
3.041725686E1,-2.311073802E-2,1.334905624E-2,-1.294441223E-1
3.042731822E1,-2.798676677E-2,-3.874182701E-3,-1.294879913E-1
3.044572140E1,-3.571609408E-2,-3.056681156E-2,-1.371822357E-1
3.045572858E1,-3.596607596E-2,-2.268815041E-2,-1.458482742E-1
3.046588020E1,-2.771388181E-2,-2.090460062E-2,-1.700859070E-1
3.047737270E1,-8.544627577E-3,-1.057648659E-2,-1.943054199E-1
3.049603343E1,1.734927855E-2,-1.353806257E-2,-1.659832001E-1
3.051578520E1,3.405924141E-2,3.017127514E-3,-1.484022141E-1
3.052582171E1,3.634640947E-3,1.256495714E-2,-1.857509613E-1
3.053586624E1,9.563550353E-3,2.701258659E-2,-2.613945007E-1
3.055574285E1,1.012673043E-2,5.559831858E-2,5.057144165E-2
3.056584540E1,-1.075323671E-3,4.984128475E-2,-1.520643234E-1
3.057646140E1,-4.319349304E-3,6.316989660E-2,-3.847475052E-1
3.059575364E1,9.116500616E-3,4.417705536E-2,-1.613206863E-1
3.060605395E1,2.069668099E-2,3.133326769E-2,-4.995441437E-2
3.062649858E1,2.325914614E-2,4.569113255E-2,-2.345333099E-1
3.064575244E1,4.689330235E-3,4.754793644E-2,-1.103115082E-1
3.065583155E1,1.249082945E-2,6.292033195E-2,-5.406761169E-2
3.066628082E1,2.005274966E-2,6.858283281E-2,-9.599876404E-2
3.068590160E1,2.129506692E-2,6.810861826E-2,-1.751699448E-1
3.070598093E1,3.517564386E-3,1.844954491E-2,-8.185672760E-2
3.072580494E1,5.252340809E-3,1.203674078E-2,-1.513376236E-1
3.074585186E1,2.599167451E-2,-4.074752331E-3,-1.239709854E-1
3.075693087E1,1.877415366E-2,-1.244866848E-2,-1.432371140E-1
3.077582999E1,1.730873249E-2,-1.683747768E-2,-1.794500351E-1
3.078751567E1,-5.772711709E-3,-5.465209484E-3,-1.700401306E-1
3.080575686E1,-7.656291127E-4,-1.238638163E-2,-1.511955261E-1
3.081624436E1,-1.241099089E-2,9.840905666E-3,-1.872673035E-1
3.083573015E1,-1.548188925E-2,4.000580311E-2,-1.827907562E-1
3.084582020E1,-2.362329513E-2,6.119841337E-2,-1.458234787E-1
3.085583150E1,-2.338298224E-2,5.607676506E-2,-1.375856400E-1
3.087575207E1,-5.722897127E-3,6.669729948E-2,-1.534929276E-1
3.088575337E1,-5.300058052E-3,5.971544981E-2,-1.524963379E-1
3.089595759E1,-2.498604357E-3,4.545766115E-2,-1.311569214E-1
3.091594025E1,-1.731776446E-2,3.966718912E-2,-1.267881393E-1
3.093590265E1,-1.417534053E-2,4.623180628E-2,-1.320676804E-1
3.095576775E1,-1.122983359E-2,4.536241293E-2,-1.289863586E-1
3.096681020E1,-3.871480003E-3,4.668962955E-2,-1.172199249E-1
3.098792290E1,-1.182531938E-3,2.569252253E-2,-1.331624985E-1
3.100584952E1,2.299381047E-2,2.153509855E-2,-1.455049515E-1
3.101616837E1,1.583067328E-2,1.101660728E-2,-1.648492813E-1
3.103584874E1,1.658123732E-2,-2.901554108E-4,-1.819715500E-1
3.104585103E1,6.196781993E-3,-8.386373520E-4,-1.893072128E-1
3.105630171E1,1.328205690E-2,-9.847879410E-4,-1.990032196E-1
3.107727457E1,1.631489769E-2,1.515632868E-2,-1.394186020E-1
3.109582520E1,3.663860261E-3,3.000622988E-2,-9.191799164E-2
3.110588113E1,6.711315364E-4,4.619330168E-2,-1.292896271E-1
3.112571931E1,-8.455140516E-3,3.620374203E-2,-1.873006821E-1
3.113572936E1,3.294210881E-3,3.742539883E-2,-1.683492661E-1
3.114573431E1,1.355057396E-2,3.344315290E-2,-1.373577118E-1
3.115574015E1,1.177179627E-2,3.414779902E-2,-1.111660004E-1
3.116575322E1,1.456573047E-2,9.762704372E-3,-7.060432434E-2
3.118575317E1,6.635455415E-3,2.272957563E-2,-3.019714355E-1
3.120587233E1,4.990667850E-2,2.121239901E-2,3.111934662E-2
3.122589197E1,5.963550508E-2,-3.191071749E-2,-2.336997986E-1
3.123594072E1,-1.617482305E-2,-3.921103477E-2,-3.142337799E-1
3.125576577E1,-4.661817104E-2,-2.153050900E-2,-1.886739731E-1
